Time,AccelX,AccelY,AccelZ,TargetAngleX,TargetAngleY,TargetAngleZ,CurrentAngleX,CurrentAngleY,CurrentAngleZ
593,-2,35,3,82,-9,11,23,50,-38,20,-45,55,3,53,-5,73,-6,83
625,-2,35,3,82,-9,11,23,50,-38,20,-45,55,6,52,-10,60,-12,64
754,-2,35,3,82,-9,11,23,50,-38,20,-45,55,9,07,-14,74,-17,58
791,-2,35,3,72,-9,11,23,50,-37,20,-45,55,11,23,-18,11,-21,77
825,-2,35,3,82,-9,02,23,50,-38,20,-45,10,13,07,-21,12,-25,27
864,-2,35,3,82,-8,92,23,50,-38,20,-44,60,14,64,-23,68,-28,17
901,-2,35,3,92,-9,02,23,50,-39,20,-45,10,15,97,-26,01,-30,71
933,-2,35,3,92,-9,02,23,50,-39,20,-45,10,17,10,-27,99,-32,87
962,-2,45,3,92,-9,02,24,50,-39,20,-45,10,18,21,-29,67,-34,70
992,-2,35,3,92,-9,02,23,50,-39,20,-45,10,19,00,-31,10,-36,26
1024,-2,45,3,82,-9,11,24,50,-38,20,-45,55,19,83,-32,17,-37,66
1056,-2,35,3,72,-9,02,23,50,-37,20,-45,10,20,38,-32,92,-38,77
1095,-2,35,3,92,-9,02,23,50,-39,20,-45,10,20,85,-33,86,-39,72
1133,-2,35,3,92,-9,02,23,50,-39,20,-45,10,21,24,-34,66,-40,53
1165,-2,45,3,92,-9,02,24,50,-39,20,-45,10,21,73,-35,34,-41,21
1198,-2,35,3,82,-8,92,23,50,-38,20,-44,60,22,00,-35,77,-41,72
1225,-2,45,3,92,-9,02,24,50,-39,20,-45,10,22,37,-36,29,-42,23
1258,-2,45,3,82,-9,11,24,50,-38,20,-45,55,22,69,-36,57,-42,73
1291,-2,35,3,82,-8,92,23,50,-38,20,-44,60,22,81,-36,82,-43,01
1320,-2,35,3,92,-9,02,23,50,-39,20,-45,10,22,92,-37,17,-43,32
1345,-2,35,3,92,-9,02,23,50,-39,20,-45,10,23,00,-37,48,-43,59
1370,-2,35,3,92,-9,02,23,50,-39,20,-45,10,23,08,-37,74,-43,82
1402,-2,35,3,82,-8,92,23,50,-38,20,-44,60,23,14,-37,81,-43,93
1427,-2,35,3,82,-8,92,23,50,-38,20,-44,60,23,20,-37,87,-44,03
1452,-2,45,3,82,-9,02,24,50,-38,20,-45,10,23,39,-37,92,-44,19
1482,-2,45,3,92,-8,92,24,50,-39,20,-44,60,23,56,-38,11,-44,25
1506,-2,35,3,82,-8,92,23,50,-38,20,-44,60,23,56,-38,11,-44,31
1539,-2,35,3,82,-9,11,23,50,-38,20,-45,55,23,56,-38,11,-44,49
1572,-2,35,3,92,-9,11,23,50,-39,20,-45,55,23,56,-38,27,-44,65
1596,-2,35,3,82,-9,11,23,50,-38,20,-45,55,23,56,-38,27,-44,79
1618,-2,35,3,82,-8,92,23,50,-38,20,-44,60,23,56,-38,27,-44,79
1644,-2,35,3,92,-9,02,23,50,-39,20,-45,10,23,56,-38,41,-44,83
1667,-2,35,3,82,-8,92,23,50,-38,20,-44,60,23,56,-38,38,-44,80
1695,-2,35,3,82,-9,11,23,50,-38,20,-45,55,23,56,-38,38,-44,91
1720,-2,35,3,82,-9,11,23,50,-38,20,-45,55,23,56,-38,38,-45,01
1744,-2,35,3,82,-9,11,23,50,-38,20,-45,55,23,56,-38,38,-45,09
1768,-2,35,3,92,-9,02,23,50,-39,20,-45,10,23,56,-38,50,-45,09
1795,-2,35,3,92,-9,11,23,50,-39,20,-45,55,23,56,-38,61,-45,16
1828,-2,35,3,82,-8,92,23,50,-38,20,-44,60,23,56,-38,55,-45,07
1856,-2,45,3,92,-9,02,24,50,-39,20,-45,10,23,70,-38,64,-45,07
1886,-2,35,3,92,-9,02,23,50,-39,20,-45,10,23,70,-38,73,-45,07
1919,-2,35,3,92,-9,02,23,50,-39,20,-45,10,23,70,-38,80,-45,07
1946,-2,35,3,72,-8,72,23,50,-37,20,-43,60,23,70,-38,56,-44,85
1969,-2,35,3,82,-8,92,23,50,-38,20,-44,60,23,70,-38,50,-44,81
1998,-2,35,3,92,-9,02,23,50,-39,20,-45,10,23,70,-38,61,-44,86
2022,-2,35,3,92,-9,02,23,50,-39,20,-45,10,23,70,-38,70,-44,89
2051,-2,35,3,92,-9,11,23,50,-39,20,-45,55,23,70,-38,77,-44,99
2077,-2,35,3,82,-9,11,23,50,-38,20,-45,55,23,70,-38,69,-45,08
2102,-2,35,3,82,-9,11,23,50,-38,20,-45,55,23,70,-38,61,-45,15
2130,-2,16,3,04,-7,55,21,60,-30,40,-37,75,23,38,-37,38,-44,04
2151,-1,96,4,90,-10,00,19,60,-49,00,-50,00,22,82,-39,12,-44,93
2178,-1,96,4,90,-10,00,19,60,-49,00,-50,00,22,33,-40,61,-45,69
2203,-1,96,4,90,-10,68,19,60,-49,00,-53,40,21,92,-41,87,-46,85
2231,-2,65,4,12,-8,04,26,50,-41,20,-40,20,22,61,-41,77,-45,85
2258,-2,45,3,14,-9,11,24,50,-31,40,-45,55,22,89,-40,21,-45,81
2285,-1,57,4,21,-9,11,15,70,-42,10,-45,55,21,81,-40,49,-45,77
2306,-2,45,3,43,-8,62,24,50,-34,30,-43,10,22,22,-39,56,-45,37
2329,-2,35,3,14,-9,21,23,50,-31,40,-46,05,22,41,-38,34,-45,47
2349,-2,35,3,14,-8,82,23,50,-31,40,-44,10,22,57,-37,30,-45,26
2374,-2,16,4,80,-8,82,21,60,-48,00,-44,10,22,43,-38,90,-45,09
2403,-1,67,3,82,-8,92,16,70,-38,20,-44,60,21,57,-38,80,-45,02
2427,-1,86,4,41,-9,11,18,60,-44,10,-45,55,21,12,-39,59,-45,10
2451,-3,53,3,72,-8,53,35,30,-37,20,-42,65,23,25,-39,23,-44,73
2493,-3,53,3,63,-8,82,35,30,-36,30,-44,10,25,06,-38,79,-44,63
2524,-0,88,4,51,-9,31,8,80,-45,10,-46,55,22,62,-39,74,-44,92
2549,-1,67,4,41,-9,80,16,70,-44,10,-49,00,21,73,-40,39,-45,53
2576,-1,86,3,82,-9,11,18,60,-38,20,-45,55,21,26,-40,07,-45,53
2602,-1,86,3,82,-9,11,18,60,-38,20,-45,55,20,86,-39,79,-45,53
2627,-1,86,3,33,-8,04,18,60,-33,30,-40,20,20,52,-38,81,-44,73
2655,-3,04,3,43,-9,21,30,40,-34,30,-46,05,22,00,-38,14,-44,93
2684,-2,16,3,43,-9,21,21,60,-34,30,-46,05,21,94,-37,56,-45,10
2709,-2,16,3,43,-9,60,21,60,-34,30,-48,00,21,89,-37,07,-45,53
2729,-1,86,4,41,-9,60,18,60,-44,10,-48,00,21,40,-38,13,-45,90
2749,-1,86,4,21,-9,80,18,60,-42,10,-49,00,20,98,-38,72,-46,37
2778,-1,37,3,14,-9,21,13,70,-31,40,-46,05,19,89,-37,62,-46,32
2800,-1,37,3,14,-8,92,13,70,-31,40,-44,60,18,96,-36,69,-46,06
2821,-1,67,3,04,-8,92,16,70,-30,40,-44,60,18,62,-35,75,-45,84
2841,-1,37,2,94,-9,41,13,70,-29,40,-47,05,17,88,-34,79,-46,02
2862,-1,37,2,94,-9,11,13,70,-29,40,-45,55,17,25,-33,99,-45,95
2889,-2,45,3,04,-9,31,24,50,-30,40,-46,55,18,34,-33,45,-46,04
2913,-1,57,3,33,-9,31,15,70,-33,30,-46,55,17,95,-33,45,-46,12
2936,-2,35,2,84,-9,70,23,50,-28,40,-48,50,18,78,-32,69,-46,48
2961,-2,35,3,14,-10,68,23,50,-31,40,-53,40,19,49,-32,50,-47,51
2983,-1,96,3,23,-10,58,19,60,-32,30,-52,90,19,49,-32,50,-48,32
3006,-0,88,3,23,-10,58,8,80,-32,30,-52,90,17,88,-32,50,-49,01
3028,-0,88,3,23,-10,58,8,80,-32,30,-52,90,16,52,-32,50,-49,59
3055,-1,57,3,14,-9,21,15,70,-31,40,-46,05,16,40,-32,33,-49,06
3086,-0,88,3,04,-10,58,8,80,-30,40,-52,90,15,26,-32,04,-49,64
3111,-0,88,3,33,-12,15,8,80,-33,30,-60,75,14,29,-32,23,-51,30
3135,-1,57,3,33,-11,66,15,70,-33,30,-58,30,14,50,-32,39,-52,35
3157,-1,37,3,33,-9,80,13,70,-33,30,-49,00,14,38,-32,53,-51,85
3178,2,16,3,63,-9,80,-21,60,-36,30,-49,00,8,98,-33,09,-51,42
3198,0,49,2,06,-10,78,-4,90,-20,60,-53,90,6,90,-31,22,-51,79
3217,0,49,2,06,-11,17,-4,90,-20,60,-55,85,5,13,-29,63,-52,40
3242,0,59,1,76,-11,17,-5,90,-17,60,-55,85,3,48,-27,82,-52,92
3262,-0,29,0,98,-10,09,2,90,-9,80,-50,45,3,39,-25,12,-52,55
3283,-0,29,1,18,-9,90,2,90,-11,80,-49,50,3,32,-23,12,-52,09
3302,0,88,1,18,-9,90,-8,80,-11,80,-49,50,1,50,-21,42,-51,70
3322,1,27,1,67,-9,21,-12,70,-16,70,-46,05,-0,63,-20,71,-50,86
3344,1,27,2,06,-8,92,-12,70,-20,60,-44,60,-2,44,-20,71,-49,92
3364,3,53,2,06,-8,92,-35,30,-20,60,-44,60,-7,37,-20,71,-49,12
3382,3,43,2,16,-8,62,-34,30,-21,60,-43,10,-11,41,-20,85,-48,22
3402,3,43,2,16,-5,88,-34,30,-21,60,-29,40,-14,84,-20,96,-45,39
3418,2,65,0,10,-5,88,-26,50,-1,00,-29,40,-16,59,-17,97,-42,99
3435,2,65,0,10,-5,88,-26,50,-1,00,-29,40,-18,08,-15,42,-40,96
3466,2,65,0,10,-6,86,-26,50,-1,00,-34,30,-19,34,-13,26,-39,96
3487,2,65,-0,29,-6,86,-26,50,2,90,-34,30,-20,42,-10,83,-39,11
3507,1,67,-0,20,-9,80,-16,70,2,00,-49,00,-19,86,-8,91,-40,59
3525,1,67,-1,57,-7,74,-16,70,15,70,-38,70,-19,38,-5,22,-40,31
3544,2,35,-1,57,-7,74,-23,50,15,70,-38,70,-20,00,-2,08,-40,07
3562,1,57,-2,06,-8,13,-15,70,20,60,-40,65,-19,36,1,32,-40,15
3582,1,57,-2,06,-10,29,-15,70,20,60,-51,45,-18,81,4,21,-41,85
3600,-0,20,-2,45,-10,29,2,00,24,50,-51,45,-15,69,7,26,-43,29
3618,1,27,-2,35,-9,60,-12,70,23,50,-48,00,-15,24,9,69,-44,00
3637,1,27,-2,35,-9,60,-12,70,23,50,-48,00,-14,86,11,76,-44,60
3657,2,16,-1,27,-11,47,-21,60,12,70,-57,35,-15,87,11,90,-46,51
3683,1,96,-1,67,-10,68,-19,60,16,70,-53,40,-16,43,12,62,-47,54
3708,1,96,-1,57,-10,39,-19,60,15,70,-51,95,-16,90,13,09,-48,20
3728,1,86,-1,57,-10,58,-18,60,15,70,-52,90,-17,16,13,48,-48,91
3746,0,88,-2,25,-10,58,-8,80,22,50,-52,90,-15,90,14,83,-49,51
3772,0,88,-2,45,-9,31,-8,80,24,50,-46,55,-14,84,16,28,-49,06
3801,0,00,-0,78,-10,09,-0,00,7,80,-50,45,-12,61,15,01,-49,27
3830,2,65,-0,59,-11,76,-26,50,5,90,-58,80,-14,70,13,64,-50,70
3858,2,65,-0,59,-11,76,-26,50,5,90,-58,80,-16,47,12,48,-51,92
3884,2,65,-0,59,-9,02,-26,50,5,90,-45,10,-17,97,11,49,-50,89
3906,2,65,-0,88,-9,02,-26,50,8,80,-45,10,-19,25,11,09,-50,02
3931,3,53,-0,88,-8,62,-35,30,8,80,-43,10,-21,66,10,75,-48,99
3952,3,82,-0,49,-8,04,-38,20,4,90,-40,20,-24,14,9,87,-47,67
3973,3,82,0,10,-10,39,-38,20,-1,00,-51,95,-26,25,8,24,-48,31
3994,2,94,0,10,-10,39,-29,40,-1,00,-51,95,-26,72,6,85,-48,86
4015,1,67,-0,59,-8,13,-16,70,5,90,-40,65,-25,22,6,71,-47,63
4035,1,67,-1,08,-7,74,-16,70,10,80,-38,70,-23,94,7,32,-46,29
4056,1,27,-1,08,-7,74,-12,70,10,80,-38,70,-22,25,7,85,-45,15
4076,0,59,-1,57,-9,90,-5,90,15,70,-49,50,-19,80,9,02,-45,80
4094,0,59,-1,57,-11,17,-5,90,15,70,-55,85,-17,72,10,02,-47,31
4114,-0,78,-1,57,-11,17,7,80,15,70,-55,85,-13,89,10,88,-48,59
4132,-0,49,-1,67,-11,07,4,90,16,70,-55,35,-11,07,11,75,-49,60
4150,-0,49,-1,67,-10,00,4,90,16,70,-50,00,-8,67,12,49,-49,66
4171,-0,59,-2,06,-10,00,5,90,20,60,-50,00,-6,49,13,71,-49,71
4195,-2,16,-4,12,-9,70,21,60,41,20,-48,50,-2,28,17,83,-49,53
4213,-2,16,-1,96,-9,90,21,60,19,60,-49,50,1,31,18,10,-49,53
4231,-2,16,-1,96,-9,90,21,60,19,60,-49,50,4,35,18,32,-49,53
4248,-2,94,-1,18,-14,21,29,40,11,80,-71,05,8,11,17,34,-52,76
4266,-2,94,-1,18,-14,21,29,40,11,80,-71,05,11,30,16,51,-55,50
4282,-2,94,-1,18,-14,21,29,40,11,80,-71,05,14,02,15,81,-57,84
4301,-2,94,-1,18,-10,19,29,40,11,80,-50,95,16,32,15,20,-56,80
4323,0,20,-1,08,-10,19,-2,00,10,80,-50,95,13,58,14,54,-55,92
4343,-0,29,-1,67,-8,62,2,90,16,70,-43,10,11,97,14,87,-54,00
4364,-0,29,-0,98,-10,88,2,90,9,80,-54,40,10,61,14,11,-54,06
4385,0,59,-0,98,-10,88,-5,90,9,80,-54,40,8,14,13,46,-54,11
4406,-0,78,-1,37,-10,58,7,80,13,70,-52,90,8,09,13,50,-53,93
4425,-0,78,-0,88,-10,19,7,80,8,80,-50,95,8,04,12,79,-53,48
4444,-0,49,-0,88,-10,19,4,90,8,80,-50,95,7,57,12,19,-53,10
4463,-0,29,0,10,-11,86,2,90,-1,00,-59,30,6,87,10,21,-54,03
4482,-0,29,0,10,-11,47,2,90,-1,00,-57,35,6,28,8,53,-54,53
4499,0,88,-1,27,-11,47,-8,80,12,70,-57,35,4,01,9,16,-54,95
4518,0,88,-1,08,-9,80,-8,80,10,80,-49,00,2,09,9,40,-54,06
4539,0,29,-1,08,-9,80,-2,90,10,80,-49,00,1,34,9,61,-53,30
4558,0,00,-0,69,-9,80,-0,00,6,90,-49,00,1,14,9,21,-52,66
4576,0,00,-0,78,-9,70,-0,00,7,80,-48,50,0,97,9,00,-52,03
4606,0,59,-0,59,-9,90,-5,90,5,90,-49,50,-0,06,8,53,-51,65
4625,0,20,-0,59,-9,90,-2,00,5,90,-49,50,-0,35,8,14,-51,33
4643,-1,08,0,00,-10,29,10,80,-0,00,-51,45,1,32,6,92,-51,33
4663,-1,08,0,00,-10,29,10,80,-0,00,-51,45,2,74,5,88,-51,33
4682,-1,08,0,00,-10,29,10,80,-0,00,-51,45,3,95,5,00,-51,33
4702,-1,08,0,00,-9,60,10,80,-0,00,-48,00,4,98,4,25,-50,83
4719,-1,08,0,00,-10,19,10,80,-0,00,-50,95,5,85,3,61,-50,83
4738,-0,29,-0,29,-10,19,2,90,2,90,-50,95,5,41,3,50,-50,83
4760,0,00,-0,10,-10,39,-0,00,1,00,-51,95,4,60,3,13,-51,00
4781,0,00,-0,10,-10,29,-0,00,1,00,-51,45,3,91,2,81,-51,07
4806,-0,20,-0,20,-10,29,2,00,2,00,-51,45,3,62,2,69,-51,12
4837,0,20,-0,20,-10,58,-2,00,2,00,-52,90,2,78,2,58,-51,39
4863,0,49,-0,29,-10,68,-4,90,2,90,-53,40,1,63,2,63,-51,69
4888,0,29,-0,20,-10,88,-2,90,2,00,-54,40,0,95,2,54,-52,10
4914,0,29,-0,29,-9,90,-2,90,2,90,-49,50,0,37,2,59,-51,71
4940,0,29,-0,29,-10,19,-2,90,2,90,-50,95,-0,12,2,64,-51,59
4960,0,29,-0,29,-9,70,-2,90,2,90,-48,50,-0,54,2,68,-51,13
4981,0,59,-0,78,-9,70,-5,90,7,80,-48,50,-1,34,3,45,-50,74
5003,0,29,-0,29,-10,68,-2,90,2,90,-53,40,-1,58,3,36,-51,14
5023,0,29,-0,39,-10,58,-2,90,3,90,-52,90,-1,77,3,44,-51,40
5048,-0,29,-0,39,-10,29,2,90,3,90,-51,45,-1,07,3,51,-51,40
5067,-0,20,-0,20,-10,29,2,00,2,00,-51,45,-0,61,3,29,-51,40
5090,-0,20,-0,20,-10,29,2,00,2,00,-51,45,-0,22,3,09,-51,40
5110,-0,20,-0,20,-9,90,2,00,2,00,-49,50,0,11,2,93,-51,12
5133,0,00,-0,59,-9,90,-0,00,5,90,-49,50,0,11,3,37,-50,87
5156,0,20,-0,29,-10,19,-2,00,2,90,-50,95,-0,20,3,30,-50,87
5177,0,20,-0,49,-10,29,-2,00,4,90,-51,45,-0,47,3,54,-50,96
5199,0,49,-0,49,-10,29,-4,90,4,90,-51,45,-1,14,3,75,-51,03
5217,0,20,-0,49,-10,29,-2,00,4,90,-51,45,-1,27,3,92,-51,10
5234,0,20,-0,59,-9,90,-2,00,5,90,-49,50,-1,38,4,22,-50,86
5253,0,29,-0,59,-9,90,-2,90,5,90,-49,50,-1,61,4,47,-50,65
5272,0,29,-0,49,-10,29,-2,90,4,90,-51,45,-1,80,4,53,-50,77
5292,0,29,-0,49,-10,29,-2,90,4,90,-51,45,-1,96,4,59,-50,87
5312,0,00,-0,20,-10,29,-0,00,2,00,-51,45,-1,67,4,20,-50,96
5334,0,00,-0,29,-10,49,-0,00,2,90,-52,45,-1,42,4,01,-51,18
5353,0,00,-0,69,-9,80,-0,00,6,90,-49,00,-1,21,4,44,-50,86
5374,0,49,-0,69,-9,80,-4,90,6,90,-49,00,-1,76,4,81,-50,58
5392,0,20,-0,39,-10,39,-2,00,3,90,-51,95,-1,80,4,67,-50,78
5410,0,20,-0,39,-10,39,-2,00,3,90,-51,95,-1,83,4,56,-50,96
5429,0,20,-0,39,-10,39,-2,00,3,90,-51,95,-1,83,4,46,-51,11
5447,0,00,-0,49,-10,29,-0,00,4,90,-51,45,-1,55,4,52,-51,16
5464,0,29,-0,49,-10,29,-2,90,4,90,-51,45,-1,75,4,58,-51,20
5481,0,29,-0,59,-10,39,-2,90,5,90,-51,95,-1,93,4,78,-51,31
5499,0,29,-0,59,-10,39,-2,90,5,90,-51,95,-2,07,4,95,-51,41
5521,0,29,-0,59,-10,39,-2,90,5,90,-51,95,-2,20,5,09,-51,49
5541,0,20,-0,69,-9,80,-2,00,6,90,-49,00,-2,20,5,36,-51,12
5565,0,20,-0,49,-10,29,-2,00,4,90,-51,45,-2,20,5,29,-51,17
5583,0,20,-0,49,-10,29,-2,00,4,90,-51,45,-2,20,5,23,-51,21
5601,0,20,-0,49,-10,29,-2,00,4,90,-51,45,-2,20,5,18,-51,25
5617,0,20,-0,49,-10,29,-2,00,4,90,-51,45,-2,20,5,14,-51,28
5634,0,20,-0,49,-10,29,-2,00,4,90,-51,45,-2,20,5,10,-51,28
5651,0,20,-0,49,-10,49,-2,00,4,90,-52,45,-2,20,5,07,-51,45
5667,0,29,-0,29,-10,49,-2,90,2,90,-52,45,-2,30,4,75,-51,60
5683,0,29,-0,49,-10,49,-2,90,4,90,-52,45,-2,39,4,75,-51,73
5699,0,29,-0,49,-10,49,-2,90,4,90,-52,45,-2,47,4,75,-51,84
5716,0,29,-0,49,-10,29,-2,90,4,90,-51,45,-2,53,4,75,-51,78
5732,0,20,-0,49,-10,29,-2,00,4,90,-51,45,-2,45,4,75,-51,73
5748,0,29,-0,78,-9,90,-2,90,7,80,-49,50,-2,52,5,21,-51,40
5764,0,29,-0,78,-9,90,-2,90,7,80,-49,50,-2,58,5,59,-51,11
5781,0,29,-0,69,-10,00,-2,90,6,90,-50,00,-2,63,5,79,-50,94
5810,0,29,-0,49,-10,29,-2,90,4,90,-51,45,-2,67,5,66,-51,02
5840,0,20,-0,39,-10,39,-2,00,3,90,-51,95,-2,57,5,39,-51,16
5864,0,20,-0,39,-10,29,-2,00,3,90,-51,45,-2,48,5,17,-51,20
5889,0,29,-0,49,-10,29,-2,90,4,90,-51,45,-2,54,5,13,-51,24
5909,0,20,-0,49,-10,29,-2,00,4,90,-51,45,-2,46,5,09,-51,27
5929,0,20,-0,49,-10,29,-2,00,4,90,-51,45,-2,39,5,09,-51,27
5956,0,20,-0,49,-10,49,-2,00,4,90,-52,45,-2,33,5,09,-51,45
5976,0,20,-0,29,-10,49,-2,00,2,90,-52,45,-2,28,4,77,-51,60
5992,0,29,-0,20,-10,29,-2,90,2,00,-51,45,-2,38,4,35,-51,60
6010,0,29,-0,20,-10,39,-2,90,2,00,-51,95,-2,46,4,00,-51,65
6026,0,49,-0,39,-10,39,-4,90,3,90,-51,95,-2,82,4,00,-51,70
6043,0,49,-0,39,-10,39,-4,90,3,90,-51,95,-3,13,4,00,-51,73
6062,0,49,-0,39,-10,39,-4,90,3,90,-51,95,-3,40,4,00,-51,77
6080,0,00,-0,98,-9,70,-0,00,9,80,-48,50,-2,89,4,87,-51,28
6098,0,00,-0,98,-9,70,-0,00,9,80,-48,50,-2,46,5,61,-50,86
6116,0,20,-1,27,-9,51,-2,00,12,70,-47,55,-2,39,6,67,-50,36
6133,0,20,-1,27,-8,82,-2,00,12,70,-44,10,-2,33,7,58,-49,42
6152,0,20,-1,86,-8,82,-2,00,18,60,-44,10,-2,28,9,23,-48,63
6168,0,00,-1,37,-7,74,-0,00,13,70,-38,70,-1,94,9,90,-47,14
6185,0,00,-1,37,-7,74,-0,00,13,70,-38,70,-1,65,10,47,-45,87
6204,0,29,2,84,-12,94,-2,90,-28,40,-64,70,-1,84,4,64,-48,70
6222,0,29,4,41,-15,39,-2,90,-44,10,-76,95,-1,99,-2,67,-52,93
6245,1,08,4,41,-15,39,-10,80,-44,10,-76,95,-3,32,-8,89,-56,54
6267,0,59,2,74,-14,60,-5,90,-27,40,-73,00,-3,70,-11,66,-59,01
6289,0,59,-1,67,-9,02,-5,90,16,70,-45,10,-4,03,-7,41,-56,92
6307,-0,88,-1,67,-9,02,8,80,16,70,-45,10,-2,11,-3,79,-55,15
6325,-0,59,-4,61,-5,29,5,90,46,10,-26,45,-0,91,3,69,-50,84
6345,-0,59,-4,61,-5,29,5,90,46,10,-26,45,0,11,10,05,-47,18
6361,-0,59,-4,61,-5,29,5,90,46,10,-26,45,0,98,15,46,-44,07
6378,-0,88,-4,51,-5,39,8,80,45,10,-26,95,2,15,19,91,-41,50
6395,-0,88,-4,51,-5,39,8,80,45,10,-26,95,3,15,23,69,-39,32
6411,1,37,0,69,-10,09,-13,70,-6,90,-50,45,0,62,19,10,-40,99
6429,1,37,0,69,-15,48,-13,70,-6,90,-77,40,-1,52,15,20,-46,45
6445,0,88,3,33,-15,48,-8,80,-33,30,-77,40,-2,62,7,92,-51,09
6461,0,88,3,33,-13,13,-8,80,-33,30,-65,65,-3,54,1,74,-53,28
6478,-0,29,1,96,-13,13,2,90,-19,60,-65,65,-2,58,-1,46,-55,13
6496,-0,29,-1,96,-7,25,2,90,19,60,-36,25,-1,76,1,70,-52,30
6513,-1,86,-1,96,-7,25,18,60,19,60,-36,25,1,30,4,38,-49,89
6530,-1,57,-3,04,-6,37,15,70,30,40,-31,85,3,46,8,29,-47,19
6548,-1,57,-3,04,-8,92,15,70,30,40,-44,60,5,29,11,60,-46,80
6564,0,00,-1,18,-8,92,-0,00,11,80,-44,60,4,50,11,60,-46,47
6580,0,00,-1,18,-12,84,-0,00,11,80,-64,20,3,83,11,60,-49,13
6596,0,88,1,27,-12,84,-8,80,-12,70,-64,20,1,93,7,96,-51,39
6612,0,88,1,27,-12,94,-8,80,-12,70,-64,70,0,32,4,86,-53,39
6628,-0,29,1,18,-12,94,2,90,-11,80,-64,70,0,71,2,36,-55,08
6650,-0,29,-0,59,-9,11,2,90,5,90,-45,55,1,04,2,89,-53,65
6666,-0,88,-0,59,-9,11,8,80,5,90,-45,55,2,20,3,34,-52,44
6682,-0,49,-1,37,-8,62,4,90,13,70,-43,10,2,61,4,90,-51,04
6698,-0,49,-1,37,-9,80,4,90,13,70,-49,00,2,95,6,22,-50,73
6714,0,20,-0,88,-9,80,-2,00,8,80,-49,00,2,21,6,60,-50,47
6730,0,20,-0,88,-10,58,-2,00,8,80,-52,90,1,58,6,93,-50,84
6746,0,00,-0,59,-10,58,-0,00,5,90,-52,90,1,34,6,78,-51,15
6763,0,00,-0,59,-10,58,-0,00,5,90,-52,90,1,14,6,65,-51,41
6780,0,00,-0,59,-10,58,-0,00,5,90,-52,90,0,97,6,53,-51,63
6801,0,00,-0,78,-10,58,-0,00,7,80,-52,90,0,82,6,72,-51,82
6826,0,29,-1,08,-10,00,-2,90,10,80,-50,00,0,26,7,34,-51,55
6852,0,49,-1,08,-9,90,-4,90,10,80,-49,50,-0,51,7,86,-51,24
6879,0,29,-1,18,-9,90,-2,90,11,80,-49,50,-0,87,8,45,-50,98
6907,0,20,-0,98,-10,09,-2,00,9,80,-50,45,-1,04,8,65,-50,90
6926,0,20,-0,78,-10,09,-2,00,7,80,-50,45,-1,18,8,52,-50,83
6948,0,20,-0,69,-10,19,-2,00,6,90,-50,95,-1,31,8,28,-50,83
6974,0,20,-0,69,-10,39,-2,00,6,90,-51,95,-1,41,8,07,-51,00
6995,-0,20,-0,59,-10,39,2,00,5,90,-51,95,-0,90,7,75,-51,14
7016,0,00,-0,59,-10,09,-0,00,5,90,-50,45,-0,76,7,47,-51,04
7039,0,00,-0,39,-10,58,-0,00,3,90,-52,90,-0,65,6,93,-51,32
7059,-0,20,-0,39,-10,49,2,00,3,90,-52,45,-0,25,6,48,-51,49
7077,0,20,-0,49,-10,49,-2,00,4,90,-52,45,-0,51,6,24,-51,63
7096,0,20,-0,88,-10,00,-2,00,8,80,-50,00,-0,74,6,63,-51,39
7112,0,20,-0,88,-10,00,-2,00,8,80,-50,00,-0,93,6,95,-51,18
7129,-0,20,-0,69,-10,19,2,00,6,90,-50,95,-0,49,6,95,-51,14
7146,-0,20,-0,69,-10,19,2,00,6,90,-50,95,-0,11,6,95,-51,14
7166,0,20,-0,78,-10,09,-2,00,7,80,-50,45,-0,40,7,08,-51,04
7185,0,20,-0,78,-10,09,-2,00,7,80,-50,45,-0,64,7,19,-50,95
7205,0,20,-0,78,-10,09,-2,00,7,80,-50,45,-0,84,7,28,-50,88
7223,0,00,-0,59,-10,39,-0,00,5,90,-51,95,-0,72,7,07,-51,04
7242,0,00,-0,59,-10,39,-0,00,5,90,-51,95,-0,61,6,90,-51,17
7258,0,20,-0,59,-10,39,-2,00,5,90,-51,95,-0,82,6,75,-51,29
7274,0,20,-0,69,-10,19,-2,00,6,90,-50,95,-0,99,6,75,-51,24
7290,0,20,-0,69,-10,19,-2,00,6,90,-50,95,-1,15,6,75,-51,20
7308,0,20,-0,59,-10,09,-2,00,5,90,-50,45,-1,27,6,62,-51,08
7325,0,00,-0,59,-10,09,-0,00,5,90,-50,45,-1,08,6,51,-50,99
7341,0,20,-0,69,-10,19,-2,00,6,90,-50,95,-1,22,6,57,-50,99
7358,0,20,-0,69,-10,09,-2,00,6,90,-50,45,-1,34,6,62,-50,91
7375,0,20,-0,78,-10,09,-2,00,7,80,-50,45,-1,44,6,80,-50,84
7391,0,20,-0,78,-10,09,-2,00,7,80,-50,45,-1,52,6,95,-50,78
7408,0,00,-0,59,-10,09,-0,00,5,90,-50,45,-1,29,6,79,-50,73
7424,0,00,-0,59,-10,39,-0,00,5,90,-51,95,-1,10,6,66,-50,91
7442,0,20,-0,59,-10,39,-2,00,5,90,-51,95,-1,23,6,54,-51,07
7458,0,20,-0,78,-10,09,-2,00,7,80,-50,45,-1,35,6,73,-50,98
7475,0,20,-0,78,-10,09,-2,00,7,80,-50,45,-1,45,6,89,-50,90
7491,0,20,-0,78,-10,09,-2,00,7,80,-50,45,-1,53,7,03,-50,83
7508,0,20,-0,78,-10,09,-2,00,7,80,-50,45,-1,60,7,14,-50,77
7525,0,20,-0,78,-10,09,-2,00,7,80,-50,45,-1,66,7,24,-50,72
7541,0,20,-0,78,-10,39,-2,00,7,80,-51,95,-1,71,7,33,-50,91
7558,0,00,-0,59,-10,39,-0,00,5,90,-51,95,-1,45,7,11,-51,06
7581,0,00,-0,78,-10,09,-0,00,7,80,-50,45,-1,24,7,22,-50,97
7597,0,00,-0,78,-10,09,-0,00,7,80,-50,45,-1,05,7,30,-50,89
7614,0,00,-0,78,-10,09,-0,00,7,80,-50,45,-0,89,7,38,-50,83
7633,0,00,-0,78,-10,09,-0,00,7,80,-50,45,-0,76,7,44,-50,77
7650,0,20,-0,78,-10,09,-2,00,7,80,-50,45,-0,95,7,49,-50,72
7666,0,20,-0,78,-10,09,-2,00,7,80,-50,45,-1,10,7,54,-50,68
7682,0,20,-0,78,-10,09,-2,00,7,80,-50,45,-1,24,7,58,-50,65
7700,0,00,-0,69,-10,00,-0,00,6,90,-50,00,-1,05,7,48,-50,55
7716,0,00,-0,69,-10,00,-0,00,6,90,-50,00,-0,89,7,39,-50,47
7732,0,20,-0,59,-10,39,-2,00,5,90,-51,95,-1,06,7,17,-50,69
7750,0,20,-0,59,-10,19,-2,00,5,90,-50,95,-1,20,6,98,-50,73
7766,0,20,-0,69,-10,19,-2,00,6,90,-50,95,-1,32,6,98,-50,76
7785,0,20,-0,69,-10,09,-2,00,6,90,-50,45,-1,42,6,98,-50,72
7808,0,20,-0,59,-10,39,-2,00,5,90,-51,95,-1,51,6,82,-50,90
7832,0,00,-0,59,-10,39,-0,00,5,90,-51,95,-1,28,6,68,-51,06
7853,0,20,-0,78,-10,09,-2,00,7,80,-50,45,-1,39,6,85,-50,97
7870,0,20,-0,78,-10,19,-2,00,7,80,-50,95,-1,48,6,99,-50,97
7887,0,29,-0,69,-10,19,-2,90,6,90,-50,95,-1,69,6,99,-50,97
7909,0,00,-0,69,-10,19,-0,00,6,90,-50,95,-1,44,6,99,-50,97
7936,0,00,-0,78,-10,09,-0,00,7,80,-50,45,-1,22,7,11,-50,89
7952,0,20,-0,78,-10,09,-2,00,7,80,-50,45,-1,34,7,21,-50,82
7970,0,20,-0,69,-10,19,-2,00,6,90,-50,95,-1,44,7,17,-50,82
7988,0,20,-0,69,-10,09,-2,00,6,90,-50,45,-1,52,7,13,-50,77
8008,0,20,-0,78,-10,09,-2,00,7,80,-50,45,-1,60,7,23,-50,72
8029,0,20,-0,78,-10,09,-2,00,7,80,-50,45,-1,66,7,31,-50,68
8049,0,20,-0,78,-10,09,-2,00,7,80,-50,45,-1,71,7,39,-50,64
8072,0,20,-0,78,-10,09,-2,00,7,80,-50,45,-1,75,7,45,-50,64
8093,0,00,-0,59,-10,39,-0,00,5,90,-51,95,-1,49,7,22,-50,84
8116,0,00,-0,59,-10,39,-0,00,5,90,-51,95,-1,27,7,02,-51,01
8137,0,29,-0,59,-10,09,-2,90,5,90,-50,45,-1,51,6,85,-50,92
8156,0,20,-0,59,-10,09,-2,00,5,90,-50,45,-1,58,6,71,-50,85
8176,0,20,-0,69,-10,00,-2,00,6,90,-50,00,-1,65,6,71,-50,72
8193,0,20,-0,69,-10,00,-2,00,6,90,-50,00,-1,70,6,71,-50,62
8210,0,20,-0,69,-10,00,-2,00,6,90,-50,00,-1,74,6,71,-50,52
8226,0,20,-0,69,-10,00,-2,00,6,90,-50,00,-1,78,6,71,-50,44
8243,0,20,-0,59,-10,09,-2,00,5,90,-50,45,-1,82,6,59,-50,44
8260,0,20,-0,59,-10,09,-2,00,5,90,-50,45,-1,82,6,48,-50,44
8277,0,20,-0,59,-10,09,-2,00,5,90,-50,45,-1,82,6,40,-50,44
8293,0,20,-0,78,-10,09,-2,00,7,80,-50,45,-1,82,6,61,-50,44
8309,0,20,-0,78,-10,09,-2,00,7,80,-50,45,-1,82,6,79,-50,44
8331,0,20,-0,78,-9,90,-2,00,7,80,-49,50,-1,82,6,94,-50,30
8348,0,20,-0,78,-10,19,-2,00,7,80,-50,95,-1,82,7,07,-50,40
8367,0,20,-0,69,-10,19,-2,00,6,90,-50,95,-1,82,7,07,-50,48
8386,0,20,-0,78,-10,09,-2,00,7,80,-50,45,-1,82,7,18,-50,48
8404,0,20,-0,78,-10,09,-2,00,7,80,-50,45,-1,82,7,27,-50,48
8421,0,20,-0,69,-10,19,-2,00,6,90,-50,95,-1,82,7,22,-50,55
8445,0,20,-0,69,-10,19,-2,00,6,90,-50,95,-1,82,7,17,-50,61
8462,0,20,-0,69,-10,19,-2,00,6,90,-50,95,-1,82,7,13,-50,66
8482,0,20,-0,78,-10,09,-2,00,7,80,-50,45,-1,82,7,23,-50,63
8509,0,20,-0,78,-10,29,-2,00,7,80,-51,45,-1,82,7,31,-50,75
8529,0,20,-0,49,-10,29,-2,00,4,90,-51,45,-1,82,6,95,-50,86
8553,0,20,-0,49,-10,29,-2,00,4,90,-51,45,-1,82,6,64,-50,95
8579,0,00,-0,78,-9,90,-0,00,7,80,-49,50,-1,54,6,82,-50,73
8604,0,00,-0,69,-10,00,-0,00,6,90,-50,00,-1,31,6,82,-50,62
8626,0,00,-0,78,-9,90,-0,00,7,80,-49,50,-1,11,6,96,-50,45
8648,0,00,-0,78,-9,70,-0,00,7,80,-48,50,-0,95,7,09,-50,16
8667,-0,20,-0,78,-9,70,2,00,7,80,-48,50,-0,51,7,20,-49,91
8689,-0,20,-0,59,-9,60,2,00,5,90,-48,00,-0,13,7,00,-49,62
8709,0,00,-0,59,-9,41,-0,00,5,90,-47,05,-0,13,6,84,-49,24
8729,0,00,-0,59,-9,41,-0,00,5,90,-47,05,-0,13,6,70,-48,91
8754,0,20,0,20,-9,51,-2,00,-2,00,-47,55,-0,41,5,39,-48,71
8772,0,20,0,20,-9,60,-2,00,-2,00,-48,00,-0,65,4,28,-48,60
8802,-0,20,0,59,-10,19,2,00,-5,90,-50,95,-0,25,2,76,-48,95
8829,0,00,1,76,-10,09,-0,00,-17,60,-50,45,-0,21,-0,30,-49,18
8856,0,29,2,45,-10,09,-2,90,-24,50,-50,45,-0,62,-3,93,-49,37
8883,0,29,2,45,-10,09,-2,90,-24,50,-50,45,-0,96,-7,01,-49,53
8901,0,20,1,76,-9,41,-2,00,-17,60,-47,05,-1,12,-8,60,-49,16
8920,0,20,1,76,-9,60,-2,00,-17,60,-48,00,-1,25,-9,95,-48,98
8938,0,20,2,45,-9,60,-2,00,-24,50,-48,00,-1,36,-12,13,-48,84
8955,0,20,3,33,-10,29,-2,00,-33,30,-51,45,-1,46,-15,31,-49,23
8975,0,00,3,33,-10,29,-0,00,-33,30,-51,45,-1,24,-18,01,-49,56
8994,-0,20,3,53,-10,49,2,00,-35,30,-52,45,-0,75,-20,60,-50,00
9010,-0,20,3,53,-9,80,2,00,-35,30,-49,00,-0,34,-22,81,-49,85
9026,0,00,3,63,-9,80,-0,00,-36,30,-49,00,-0,29,-24,83,-49,72
9045,0,00,4,12,-10,49,-0,00,-41,20,-52,45,-0,25,-27,29,-50,13
9065,0,00,4,12,-10,49,-0,00,-41,20,-52,45,-0,21,-29,37,-50,48
9083,0,00,4,02,-10,29,-0,00,-40,20,-51,45,-0,18,-31,00,-50,62
9100,0,00,4,02,-9,02,-0,00,-40,20,-45,10,-0,18,-32,38,-49,79
9116,0,20,3,92,-9,02,-2,00,-39,20,-45,10,-0,45,-33,40,-49,09
9132,0,20,4,51,-9,90,-2,00,-45,10,-49,50,-0,68,-35,16,-49,15
9148,-0,20,4,51,-9,90,2,00,-45,10,-49,50,-0,28,-36,65,-49,20
9164,-0,20,4,31,-9,90,2,00,-43,10,-49,50,0,06,-37,62,-49,25
9181,-0,29,4,31,-9,90,2,90,-43,10,-49,50,0,49,-38,44,-49,29
9197,0,20,3,72,-8,72,-2,00,-37,20,-43,60,0,11,-38,25,-48,43
9213,0,20,3,72,-8,72,-2,00,-37,20,-43,60,-0,20,-38,09,-47,71
9229,0,00,4,12,-9,41,-0,00,-41,20,-47,05,-0,17,-38,56,-47,61
9245,0,00,4,12,-9,41,-0,00,-41,20,-47,05,-0,17,-38,96,-47,53
9262,-0,20,4,21,-9,60,2,00,-42,10,-48,00,0,15,-39,43,-47,60
9278,-0,20,4,21,-9,60,2,00,-42,10,-48,00,0,43,-39,83,-47,66
9296,-0,20,4,21,-9,60,2,00,-42,10,-48,00,0,67,-40,17,-47,71
9317,-0,20,3,92,-9,02,2,00,-39,20,-45,10,0,87,-40,02,-47,32
9336,0,20,3,92,-9,02,-2,00,-39,20,-45,10,0,44,-39,90,-46,98
9353,0,20,4,21,-9,60,-2,00,-42,10,-48,00,0,07,-40,23,-47,14
9371,0,20,4,21,-9,70,-2,00,-42,10,-48,50,-0,24,-40,51,-47,34
9387,-0,20,4,31,-9,70,2,00,-43,10,-48,50,0,10,-40,90,-47,52
9408,-0,20,4,02,-9,11,2,00,-40,20,-45,55,0,38,-40,79,-47,22
9425,-0,20,4,02,-9,11,2,00,-40,20,-45,55,0,62,-40,71,-46,97
9441,-0,20,4,12,-9,70,2,00,-41,20,-48,50,0,83,-40,78,-47,20
9457,-0,20,4,12,-9,70,2,00,-41,20,-48,50,1,01,-40,84,-47,39
9475,0,00,4,51,-10,68,-0,00,-45,10,-53,40,0,86,-41,48,-48,30
9491,0,00,4,51,-8,82,-0,00,-45,10,-44,10,0,73,-42,02,-47,67
9507,0,20,3,14,-8,82,-2,00,-31,40,-44,10,0,32,-40,43,-47,13
9533,0,49,3,53,-10,19,-4,90,-35,30,-50,95,-0,46,-39,66,-47,70
9552,0,49,3,53,-10,19,-4,90,-35,30,-50,95,-1,13,-39,01,-48,19
9568,0,49,3,53,-10,19,-4,90,-35,30,-50,95,-1,70,-38,45,-48,60
9584,0,49,3,04,-9,11,-4,90,-30,40,-45,55,-2,18,-37,24,-48,15
9601,0,00,3,04,-9,11,-0,00,-30,40,-45,55,-1,85,-36,22,-47,76
9617,0,00,2,65,-9,90,-0,00,-26,50,-49,50,-1,57,-34,76,-48,02
9633,0,29,2,65,-9,90,-2,90,-26,50,-49,50,-1,77,-33,52,-48,24
9649,-0,29,1,08,-10,00,2,90,-10,80,-50,00,-1,07,-30,11,-48,50
9665,-0,29,1,08,-10,00,2,90,-10,80,-50,00,-0,48,-27,22,-48,73
9681,-0,29,1,08,-10,00,2,90,-10,80,-50,00,0,03,-24,75,-48,92
9697,-0,29,1,08,-9,60,2,90,-10,80,-48,00,0,46,-22,66,-48,78
9713,0,59,0,39,-9,60,-5,90,-3,90,-48,00,-0,49,-19,85,-48,66
9729,0,59,0,39,-9,70,-5,90,-3,90,-48,50,-1,30,-17,45,-48,66
9750,0,49,0,29,-9,70,-4,90,-2,90,-48,50,-1,84,-15,27,-48,66
9767,1,27,-0,59,-9,11,-12,70,5,90,-45,55,-3,47,-12,10,-48,20
9783,1,27,-0,59,-9,11,-12,70,5,90,-45,55,-4,86,-9,40,-47,80
9808,1,57,-2,06,-9,60,-15,70,20,60,-48,00,-6,48,-4,90,-47,80
9836,1,86,-2,16,-9,21,-18,60,21,60,-46,05,-8,30,-0,92,-47,54
9863,1,86,-2,74,-9,21,-18,60,27,40,-46,05,-9,85,3,33,-47,31
9888,1,27,-2,84,-9,41,-12,70,28,40,-47,05,-10,27,7,09,-47,27
9917,1,57,-2,84,-9,70,-15,70,28,40,-48,50,-11,09,10,28,-47,46
9940,1,37,-2,94,-10,00,-13,70,29,40,-50,00,-11,48,13,15,-47,84
9963,1,27,-2,74,-10,00,-12,70,27,40,-50,00,-11,66,15,29,-48,16
9984,1,37,-3,04,-9,60,-13,70,30,40,-48,00,-11,97,17,56,-48,16
10009,1,37,-4,12,-8,72,-13,70,41,20,-43,60,-12,23,21,10,-47,48
10033,2,16,-4,12,-9,31,-21,60,41,20,-46,55,-13,63,24,12,-47,34
10056,1,96,-4,12,-9,31,-19,60,41,20,-46,55,-14,53,26,68,-47,22
10079,2,16,-4,70,-8,53,-21,60,47,00,-42,65,-15,59,29,73,-46,54
10104,2,16,-4,70,-8,53,-21,60,47,00,-42,65,-16,49,32,32,-45,95
10125,2,16,-4,90,-8,13,-21,60,49,00,-40,65,-17,26,34,82,-45,16
10141,2,35,-4,90,-8,13,-23,50,49,00,-40,65,-18,19,36,95,-44,48
10164,2,65,-5,49,-7,64,-26,50,54,90,-38,20,-19,44,39,64,-43,54
10182,2,65,-5,49,-7,64,-26,50,54,90,-38,20,-20,50,41,93,-42,74
10205,2,65,-5,49,-7,64,-26,50,54,90,-38,20,-21,40,43,87,-42,06
10227,1,96,-5,39,-7,55,-19,60,53,90,-37,75,-21,13,45,38,-41,41
10254,1,96,-4,61,-7,94,-19,60,46,10,-39,70,-20,90,45,49,-41,15
10277,1,67,-4,12,-8,53,-16,70,41,20,-42,65,-20,27,44,84,-41,38
10297,1,67,-4,12,-9,41,-16,70,41,20,-47,05,-19,73,44,30,-42,23
10315,1,27,-3,33,-9,41,-12,70,33,30,-47,05,-18,68,42,65,-42,95
10335,1,27,-2,65,-9,90,-12,70,26,50,-49,50,-17,78,40,23,-43,93
10358,0,59,-2,65,-9,51,-5,90,26,50,-47,55,-16,00,38,17,-44,48
10376,0,49,-2,25,-9,51,-4,90,22,50,-47,55,-14,33,35,82,-44,94
10394,0,49,-1,67,-9,80,-4,90,16,70,-49,00,-12,92,32,95,-45,55
10415,0,29,-1,67,-9,80,-2,90,16,70,-49,00,-11,42,30,51,-46,07
10431,0,78,-0,78,-11,07,-7,80,7,80,-55,35,-10,87,27,11,-47,46
10447,0,78,-0,78,-11,56,-7,80,7,80,-57,80,-10,41,24,21,-49,01
10464,1,08,-0,59,-11,56,-10,80,5,90,-57,80,-10,47,21,46,-50,33
10486,1,08,-0,59,-10,58,-10,80,5,90,-52,90,-10,52,19,13,-50,71
10502,1,08,-0,59,-10,58,-10,80,5,90,-52,90,-10,56,17,14,-51,04
10521,1,08,-0,59,-10,58,-10,80,5,90,-52,90,-10,60,15,46,-51,32
10537,1,08,-0,59,-10,58,-10,80,5,90,-52,90,-10,63,14,02,-51,56
10553,0,49,-0,69,-10,49,-4,90,6,90,-52,45,-9,77,12,96,-51,69
10581,0,49,-0,69,-10,19,-4,90,6,90,-50,95,-9,04,12,05,-51,58
10602,0,49,-0,69,-10,58,-4,90,6,90,-52,90,-8,42,11,27,-51,78
10618,0,29,-0,39,-10,58,-2,90,3,90,-52,90,-7,59,10,17,-51,95
10640,0,20,0,20,-11,27,-2,00,-2,00,-56,35,-6,75,8,34,-52,61
10657,0,20,0,20,-11,27,-2,00,-2,00,-56,35,-6,04,6,79,-53,17
10674,-0,29,0,29,-10,68,2,90,-2,90,-53,40,-4,70,5,34,-53,20
10690,-0,29,0,29,-10,09,2,90,-2,90,-50,45,-3,56,4,10,-52,79
10707,0,20,-0,20,-10,09,-2,00,2,00,-50,45,-3,32,3,79,-52,44
10723,0,20,-0,39,-9,80,-2,00,3,90,-49,00,-3,13,3,79,-51,92
10740,0,29,-0,39,-9,80,-2,90,3,90,-49,00,-3,09,3,79,-51,48
10758,0,49,-0,69,-10,00,-4,90,6,90,-50,00,-3,36,4,25,-51,26
10778,0,49,-0,69,-10,00,-4,90,6,90,-50,00,-3,59,4,65,-51,07
10798,0,00,-0,69,-10,00,-0,00,6,90,-50,00,-3,05,4,99,-50,91
10825,-0,29,-0,69,-10,19,2,90,6,90,-50,95,-2,16,5,28,-50,91
10851,-0,29,-0,10,-10,19,2,90,1,00,-50,95,-1,40,4,63,-50,91
10883,0,49,-0,49,-9,70,-4,90,4,90,-48,50,-1,93,4,67,-50,55
10910,0,00,-0,20,-10,09,-0,00,2,00,-50,45,-1,64,4,27,-50,55
10937,0,00,-0,20,-10,09,-0,00,2,00,-50,45,-1,39,3,93,-50,55
10960,0,00,-0,20,-9,70,-0,00,2,00,-48,50,-1,18,3,64,-50,24
10985,-0,29,-0,29,-9,70,2,90,2,90,-48,50,-0,57,3,53,-49,98
11006,-0,20,0,20,-10,09,2,00,-2,00,-50,45,-0,19,2,70,-50,05
11024,-0,20,0,59,-10,78,2,00,-5,90,-53,90,0,14,1,41,-50,63
11041,-0,29,0,59,-10,78,2,90,-5,90,-53,90,0,56,0,31,-51,12
11059,-0,29,0,59,-10,78,2,90,-5,90,-53,90,0,91,-0,62,-51,54
11080,-0,29,0,59,-9,90,2,90,-5,90,-49,50,1,21,-1,41,-51,23
11096,-0,49,0,20,-9,90,4,90,-2,00,-49,50,1,76,-1,50,-50,97
11112,-0,49,0,20,-10,98,4,90,-2,00,-54,90,2,23,-1,57,-51,56
11128,-0,88,0,78,-10,98,8,80,-7,80,-54,90,3,22,-2,51,-52,06
11149,-0,88,0,78,-10,98,8,80,-7,80,-54,90,4,05,-3,30,-52,49
11165,-0,88,0,78,-10,98,8,80,-7,80,-54,90,4,77,-3,98,-52,85
11181,-0,59,0,29,-10,00,5,90,-2,90,-50,00,4,94,-3,81,-52,42
11200,-0,59,0,29,-9,80,5,90,-2,90,-49,00,5,08,-3,68,-51,91
11217,-0,59,0,10,-9,80,5,90,-1,00,-49,00,5,20,-3,28,-51,47
11244,-0,59,0,49,-10,68,5,90,-4,90,-53,40,5,31,-3,52,-51,76
11263,-0,29,0,39,-10,29,2,90,-3,90,-51,45,4,95,-3,58,-51,71
11280,-0,29,0,39,-10,29,2,90,-3,90,-51,45,4,64,-3,63,-51,68
11297,-0,29,0,29,-10,00,2,90,-2,90,-50,00,4,38,-3,52,-51,42
11315,-0,29,0,29,-10,00,2,90,-2,90,-50,00,4,16,-3,42,-51,21
11332,-0,49,0,29,-10,19,4,90,-2,90,-50,95,4,27,-3,35,-51,17
11348,-0,49,0,29,-10,19,4,90,-2,90,-50,95,4,36,-3,28,-51,14
11365,-0,49,0,29,-10,19,4,90,-2,90,-50,95,4,44,-3,22,-51,14
11384,-0,49,0,29,-10,19,4,90,-2,90,-50,95,4,51,-3,17,-51,14
11402,-0,49,0,29,-10,19,4,90,-2,90,-50,95,4,57,-3,13,-51,14
11420,-0,29,0,20,-9,90,2,90,-2,00,-49,50,4,32,-2,96,-50,89
11437,-0,29,0,20,-10,19,2,90,-2,00,-50,95,4,11,-2,82,-50,89
11457,-0,49,0,29,-10,19,4,90,-2,90,-50,95,4,23,-2,82,-50,89
11474,-0,49,0,20,-9,90,4,90,-2,00,-49,50,4,33,-2,70,-50,68
11491,-0,29,0,20,-9,90,2,90,-2,00,-49,50,4,11,-2,59,-50,51
11512,-0,29,0,39,-10,29,2,90,-3,90,-51,45,3,93,-2,79,-50,65
11531,-0,29,0,39,-10,49,2,90,-3,90,-52,45,3,78,-2,95,-50,92
11547,-0,49,0,49,-10,49,4,90,-4,90,-52,45,3,94,-3,25,-51,15
11563,-0,49,0,29,-10,19,4,90,-2,90,-50,95,4,09,-3,19,-51,15
11579,-0,29,0,29,-10,19,2,90,-2,90,-50,95,3,91,-3,15,-51,15
11598,-0,29,0,39,-10,29,2,90,-3,90,-51,45,3,76,-3,26,-51,19
11617,-0,29,0,39,-10,19,2,90,-3,90,-50,95,3,63,-3,36,-51,16
11636,-0,29,0,29,-10,19,2,90,-2,90,-50,95,3,52,-3,29,-51,13
11653,-0,29,0,29,-10,19,2,90,-2,90,-50,95,3,43,-3,23,-51,13
11673,-0,29,0,29,-10,19,2,90,-2,90,-50,95,3,35,-3,18,-51,13
11689,-0,20,0,29,-10,19,2,00,-2,90,-50,95,3,15,-3,14,-51,13
11708,-0,20,0,29,-10,00,2,00,-2,90,-50,00,2,97,-3,10,-50,96
11724,-0,20,0,29,-10,00,2,00,-2,90,-50,00,2,83,-3,07,-50,81
11741,-0,20,0,29,-10,49,2,00,-2,90,-52,45,2,70,-3,07,-51,06
11757,-0,49,0,49,-10,49,4,90,-4,90,-52,45,3,03,-3,35,-51,27
11776,-0,49,0,49,-10,49,4,90,-4,90,-52,45,3,31,-3,58,-51,44
11796,-0,49,0,49,-10,49,4,90,-4,90,-52,45,3,55,-3,78,-51,60
11816,-0,78,-0,20,-9,41,7,80,2,00,-47,05,4,19,-2,91,-50,91
11836,-0,78,0,20,-9,51,7,80,-2,00,-47,55,4,73,-2,77,-50,41
11857,-1,08,0,20,-9,51,10,80,-2,00,-47,55,5,64,-2,66,-49,98
11883,-2,35,0,59,-10,58,23,50,-5,90,-52,90,8,32,-3,14,-50,42
11911,-2,94,1,08,-9,41,29,40,-10,80,-47,05,11,48,-4,29,-49,91
11930,-3,43,0,78,-9,80,34,30,-7,80,-49,00,14,90,-4,82,-49,78
11948,-3,43,0,78,-10,00,34,30,-7,80,-50,00,17,81,-5,27,-49,81
11968,-3,82,1,08,-10,00,38,20,-10,80,-50,00,20,87,-6,10,-49,81
11984,-3,82,0,88,-9,90,38,20,-8,80,-49,50,23,47,-6,50,-49,76
12001,-3,82,0,88,-9,90,38,20,-8,80,-49,50,25,68,-6,85,-49,72
12016,-4,21,0,49,-9,02,42,10,-4,90,-45,10,28,14,-6,55,-49,03
12033,-4,21,0,49,-9,02,42,10,-4,90,-45,10,30,24,-6,31,-48,44
12053,-4,31,0,39,-9,11,43,10,-3,90,-45,55,32,17,-5,95,-48,01
12070,-4,31,0,39,-8,82,43,10,-3,90,-44,10,33,81,-5,64,-47,42
12090,-4,51,0,59,-8,82,45,10,-5,90,-44,10,35,50,-5,68,-46,92
12106,-4,51,0,69,-8,92,45,10,-6,90,-44,60,36,94,-5,86,-46,57
12122,-5,10,0,69,-8,92,51,00,-6,90,-44,60,39,05,-6,02,-46,28
12138,-5,10,0,69,-8,92,51,00,-6,90,-44,60,40,84,-6,15,-46,03
12154,-5,10,0,69,-8,92,51,00,-6,90,-44,60,42,37,-6,26,-45,81
12170,-5,29,0,39,-8,53,52,90,-3,90,-42,65,43,95,-5,91,-45,34
12186,-5,29,0,39,-8,53,52,90,-3,90,-42,65,45,29,-5,61,-44,93
12202,-5,29,0,39,-8,53,52,90,-3,90,-42,65,46,43,-5,35,-44,59
12218,-5,29,0,39,-8,53,52,90,-3,90,-42,65,47,40,-5,13,-44,30
12234,-5,10,0,20,-8,72,51,00,-2,00,-43,60,47,94,-4,66,-44,20
12250,-5,10,0,20,-8,82,51,00,-2,00,-44,10,48,40,-4,26,-44,20
12267,-5,29,0,29,-8,82,52,90,-2,90,-44,10,49,07,-4,06,-44,20
12291,-5,29,0,29,-8,82,52,90,-2,90,-44,10,49,65,-3,89,-44,20
12307,-5,29,0,29,-8,82,52,90,-2,90,-44,10,50,14,-3,74,-44,20
12323,-5,29,0,10,-8,33,52,90,-1,00,-41,65,50,55,-3,33,-43,81
12340,-5,29,0,10,-8,72,52,90,-1,00,-43,60,50,90,-2,98,-43,78
12357,-5,29,0,49,-8,72,52,90,-4,90,-43,60,51,20,-3,27,-43,78
12373,-5,29,0,39,-9,11,52,90,-3,90,-45,55,51,46,-3,36,-44,05
12390,-5,39,0,39,-9,11,53,90,-3,90,-45,55,51,82,-3,44,-44,27
12408,-5,29,0,10,-8,33,52,90,-1,00,-41,65,51,99,-3,08,-43,88
12425,-5,29,0,10,-8,33,52,90,-1,00,-41,65,52,12,-2,76,-43,54
12441,-5,10,-0,10,-8,13,51,00,1,00,-40,65,51,95,-2,20,-43,11
12462,-5,10,-0,10,-8,92,51,00,1,00,-44,60,51,81,-1,72,-43,33
12481,-4,80,0,39,-8,92,48,00,-3,90,-44,60,51,24,-2,05,-43,52
12498,-4,51,0,29,-9,02,45,10,-2,90,-45,10,50,32,-2,17,-43,76
12514,-4,51,0,29,-9,02,45,10,-2,90,-45,10,49,54,-2,28,-43,96
12530,-3,53,1,18,-10,29,35,30,-11,80,-51,45,47,40,-3,71,-45,08
12548,-3,53,1,18,-10,29,35,30,-11,80,-51,45,45,59,-4,92,-46,04
12563,-3,43,1,47,-11,07,34,30,-14,70,-55,35,43,89,-6,39,-47,44
12579,-3,43,1,47,-8,33,34,30,-14,70,-41,65,42,45,-7,64,-46,57
12597,-3,04,0,39,-8,33,30,40,-3,90,-41,65,40,65,-7,08,-45,83
12613,-3,04,0,39,-8,33,30,40,-3,90,-41,65,39,11,-6,60,-45,20
12629,-3,04,0,39,-8,33,30,40,-3,90,-41,65,37,80,-6,20,-44,67
12645,-3,04,0,20,-8,13,30,40,-2,00,-40,65,36,69,-5,57,-44,07
12661,-2,94,0,20,-8,13,29,40,-2,00,-40,65,35,60,-5,03,-43,55
12679,-1,67,0,88,-9,90,16,70,-8,80,-49,50,32,76,-5,60,-44,45
12695,-1,67,0,88,-9,90,16,70,-8,80,-49,50,30,35,-6,08,-45,20
12711,-0,88,1,47,-10,68,8,80,-14,70,-53,40,27,12,-7,37,-46,43
12727,-0,88,1,47,-10,68,8,80,-14,70,-53,40,24,37,-8,47,-47,48
12743,-0,78,1,47,-10,39,7,80,-14,70,-51,95,21,89,-9,40,-48,15
12759,-0,78,1,47,-8,72,7,80,-14,70,-43,60,19,77,-10,20,-47,47
12778,0,20,0,49,-8,72,-2,00,-4,90,-43,60,16,51,-9,40,-46,89
12801,2,35,1,37,-10,29,-23,50,-13,70,-51,45,10,51,-10,05,-47,57
12833,2,35,1,27,-10,88,-23,50,-12,70,-54,40,5,41,-10,45,-48,60
12857,1,96,1,47,-10,39,-19,60,-14,70,-51,95,1,65,-11,08,-49,10
12884,2,35,1,47,-10,00,-23,50,-14,70,-50,00,-2,12,-11,63,-49,23
12900,4,02,0,29,-10,00,-40,20,-2,90,-50,00,-7,83,-10,32,-49,35
12918,4,02,0,29,-9,21,-40,20,-2,90,-46,05,-12,69,-9,20,-48,85
12941,3,82,0,29,-9,11,-38,20,-2,90,-45,55,-16,51,-8,26,-48,36
12958,3,53,0,20,-9,11,-35,30,-2,00,-45,55,-19,33,-7,32,-47,94
12978,3,53,-0,59,-8,72,-35,30,5,90,-43,60,-21,73,-5,34,-47,29
12996,4,51,-0,59,-8,72,-45,10,5,90,-43,60,-25,23,-3,65,-46,73
13017,4,80,-0,49,-8,53,-48,00,4,90,-42,65,-28,65,-2,37,-46,12
13037,4,80,-0,49,-8,53,-48,00,4,90,-42,65,-31,55,-1,28,-45,60
13057,4,80,-0,49,-8,82,-48,00,4,90,-44,10,-34,02,-0,35,-45,38
13074,4,61,-0,49,-8,82,-46,10,4,90,-44,10,-35,83,0,44,-45,18
13096,4,61,-0,20,-8,62,-46,10,2,00,-43,10,-37,37,0,67,-44,87
13112,4,90,-0,20,-8,62,-49,00,2,00,-43,10,-39,12,0,87,-44,61
13132,5,29,-0,39,-8,92,-52,90,3,90,-44,60,-41,18,1,32,-44,61
13151,5,29,-0,39,-8,43,-52,90,3,90,-42,15,-42,94,1,71,-44,24
13171,5,59,-0,59,-8,43,-55,90,5,90,-42,15,-44,88,2,34,-43,92
13195,5,29,-0,39,-8,43,-52,90,3,90,-42,15,-46,09,2,57,-43,66
13218,5,29,0,20,-9,11,-52,90,-2,00,-45,55,-47,11,1,89,-43,94
13239,5,39,0,20,-9,90,-53,90,-2,00,-49,50,-48,13,1,30,-44,78
13257,5,59,-0,29,-9,90,-55,90,2,90,-49,50,-49,29,1,54,-45,48
13281,5,68,-0,78,-7,94,-56,80,7,80,-39,70,-50,42,2,48,-44,62
13302,5,68,-0,78,-8,92,-56,80,7,80,-44,60,-51,38,3,28,-44,62
13322,3,82,0,20,-8,92,-38,20,-2,00,-44,60,-49,40,2,49,-44,62
13339,4,02,0,88,-9,90,-40,20,-8,80,-49,50,-48,02,0,79,-45,35
13364,4,02,0,88,-7,45,-40,20,-8,80,-37,25,-46,85,-0,64,-44,13
13387,4,21,0,78,-7,45,-42,10,-7,80,-37,25,-46,13,-1,72,-43,10
13405,4,21,0,78,-7,45,-42,10,-7,80,-37,25,-45,53,-2,63,-42,22
13431,2,74,0,59,-8,82,-27,40,-5,90,-44,10,-42,81,-3,12,-42,51
13450,2,74,0,59,-8,82,-27,40,-5,90,-44,10,-40,50,-3,54,-42,74
13466,2,74,0,59,-8,82,-27,40,-5,90,-44,10,-38,53,-3,89,-42,95
13484,2,74,1,37,-9,51,-27,40,-13,70,-47,55,-36,86,-5,36,-43,64
13502,2,65,1,37,-9,51,-26,50,-13,70,-47,55,-35,31,-6,61,-44,22
13518,2,16,1,67,-9,70,-21,60,-16,70,-48,50,-33,25,-8,13,-44,87
13534,2,16,1,67,-9,70,-21,60,-16,70,-48,50,-31,50,-9,41,-45,41
13550,1,37,1,76,-8,82,-13,70,-17,60,-44,10,-28,83,-10,64,-45,21
13573,1,37,1,76,-8,62,-13,70,-17,60,-43,10,-26,56,-11,68,-44,90
13603,1,27,1,76,-9,31,-12,70,-17,60,-46,55,-24,48,-12,57,-45,15
13626,1,08,3,04,-9,31,-10,80,-30,40,-46,55,-22,43,-15,25,-45,36
13652,-0,49,4,21,-9,31,4,90,-42,10,-46,55,-18,33,-19,27,-45,54
13670,-0,20,4,31,-8,72,2,00,-43,10,-43,60,-15,28,-22,85,-45,24
13692,-0,20,4,31,-9,60,2,00,-43,10,-48,00,-12,69,-25,89,-45,66
13709,-0,59,5,39,-9,60,5,90,-53,90,-48,00,-9,90,-30,09,-46,01
13729,-0,59,5,59,-10,00,5,90,-55,90,-50,00,-7,53,-33,96,-46,61
13746,-0,78,5,59,-10,00,7,80,-55,90,-50,00,-5,23,-37,25,-47,12
13767,-0,29,5,59,-10,00,2,90,-55,90,-50,00,-4,01,-40,05,-47,55
13796,-0,29,5,49,-8,92,2,90,-54,90,-44,60,-2,98,-42,28,-47,11
13824,-0,49,5,39,-8,62,4,90,-53,90,-43,10,-1,79,-44,02,-46,51
13852,-0,78,5,29,-9,21,7,80,-52,90,-46,05,-0,35,-45,35,-46,44
13875,-0,49,5,29,-9,21,4,90,-52,90,-46,05,0,43,-46,48,-46,38
13903,-0,49,5,29,-9,11,4,90,-52,90,-45,55,1,10,-47,45,-46,25
13922,-0,59,5,68,-9,11,5,90,-56,80,-45,55,1,82,-48,85,-46,15
13943,-1,27,5,00,-7,15,12,70,-50,00,-35,75,3,45,-49,02,-44,59
13964,-1,27,5,49,-8,92,12,70,-54,90,-44,60,4,84,-49,90,-44,59
13981,-0,20,5,49,-8,92,2,00,-54,90,-44,60,4,42,-50,65,-44,59
13998,-0,49,5,19,-7,64,4,90,-51,90,-38,20,4,49,-50,84,-43,63
14019,-0,49,5,19,-7,74,4,90,-51,90,-38,70,4,55,-51,00,-42,89
14035,-0,20,5,49,-7,74,2,00,-54,90,-38,70,4,17,-51,58,-42,26
14063,-0,88,5,88,-8,13,8,80,-58,80,-40,65,4,86,-52,67,-42,02
14083,-0,88,5,98,-7,35,8,80,-59,80,-36,75,5,45,-53,74,-41,23
14101,-0,78,5,98,-7,35,7,80,-59,80,-36,75,5,80,-54,65,-40,56
14120,-0,78,6,08,-7,25,7,80,-60,80,-36,25,6,10,-55,57,-39,91
14146,-0,88,6,08,-8,23,8,80,-60,80,-41,15,6,51,-56,35,-40,10
14162,-0,78,6,47,-8,23,7,80,-64,70,-41,15,6,70,-57,61,-40,26
14178,-0,78,6,66,-8,13,7,80,-66,60,-40,65,6,87,-58,95,-40,31
14196,-0,78,6,66,-8,13,7,80,-66,60,-40,65,7,01,-60,10,-40,36
14218,-0,59,6,76,-8,04,5,90,-67,60,-40,20,6,84,-61,23,-40,36
14235,-0,59,6,27,-7,64,5,90,-62,70,-38,20,6,70,-61,45,-40,04
14254,-0,78,6,27,-7,64,7,80,-62,70,-38,20,6,86,-61,64,-39,76
14276,-0,78,6,27,-7,64,7,80,-62,70,-38,20,7,01,-61,80,-39,53
14296,-0,78,6,66,-6,96,7,80,-66,60,-34,80,7,12,-62,52,-38,82
14313,-0,49,6,66,-6,96,4,90,-66,60,-34,80,6,79,-63,13,-38,22
14332,-0,59,6,96,-7,84,5,90,-69,60,-39,20,6,66,-64,10,-38,36
14350,-0,59,6,96,-7,64,5,90,-69,60,-38,20,6,54,-64,92,-38,36
14366,-0,49,6,96,-7,64,4,90,-69,60,-38,20,6,30,-65,63,-38,36
14383,-0,49,6,86,-7,55,4,90,-68,60,-37,75,6,09,-66,07,-38,27
14400,-0,49,6,86,-7,55,4,90,-68,60,-37,75,5,91,-66,45,-38,19
14423,-0,59,7,15,-8,04,5,90,-71,50,-40,20,5,91,-67,21,-38,49
14444,-0,59,7,15,-8,04,5,90,-71,50,-40,20,5,91,-67,85,-38,75
14464,-0,59,7,15,-8,04,5,90,-71,50,-40,20,5,91,-68,40,-38,97
14486,0,20,7,94,-10,49,-2,00,-79,40,-52,45,4,72,-70,05,-40,99
14502,0,20,7,06,-8,62,-2,00,-70,60,-43,10,3,71,-70,13,-41,31
14524,-0,20,7,06,-8,62,2,00,-70,60,-43,10,3,46,-70,20,-41,58
14541,0,20,6,47,-10,09,-2,00,-64,70,-50,45,2,64,-69,38,-42,91
14560,0,20,6,47,-9,90,-2,00,-64,70,-49,50,1,94,-68,68,-43,90
14576,-0,29,5,68,-9,90,2,90,-56,80,-49,50,2,09,-66,89,-44,74
14594,-0,29,3,92,-9,02,2,90,-39,20,-45,10,2,21,-62,74,-44,79
14612,0,49,3,92,-9,02,-4,90,-39,20,-45,10,1,14,-59,21,-44,84
14629,0,49,-0,20,-4,41,-4,90,2,00,-22,05,0,24,-50,03,-41,42
14645,0,49,-0,20,-4,41,-4,90,2,00,-22,05,-0,53,-42,22,-38,51
14664,0,78,0,39,-5,29,-7,80,-3,90,-26,45,-1,62,-36,47,-36,70
14682,0,78,0,88,-9,70,-7,80,-8,80,-48,50,-2,55,-32,32,-38,47
14697,0,78,0,88,-9,70,-7,80,-8,80,-48,50,-3,34,-28,80,-39,98
14712,0,78,0,88,-9,70,-7,80,-8,80,-48,50,-4,01,-25,80,-41,26
14729,0,78,0,88,-9,70,-7,80,-8,80,-48,50,-4,58,-23,25,-42,34
14745,0,78,1,37,-10,29,-7,80,-13,70,-51,45,-5,06,-21,81,-43,71
14761,1,08,1,37,-10,29,-10,80,-13,70,-51,45,-5,92,-20,60,-44,87
14777,1,08,2,16,-11,27,-10,80,-21,60,-56,35,-6,65,-20,75,-46,59
14796,0,78,2,16,-11,27,-7,80,-21,60,-56,35,-6,82,-20,88,-48,06
14812,0,78,1,18,-9,51,-7,80,-11,80,-47,55,-6,97,-19,51,-47,98
14828,0,78,1,18,-10,09,-7,80,-11,80,-50,45,-7,10,-18,36,-48,35
14845,0,78,1,18,-10,09,-7,80,-11,80,-50,45,-7,20,-17,37,-48,67
14864,0,78,1,18,-10,19,-7,80,-11,80,-50,95,-7,29,-16,54,-49,01
14893,0,59,1,08,-10,29,-5,90,-10,80,-51,45,-7,08,-15,68,-49,37
14915,0,59,1,18,-10,29,-5,90,-11,80,-51,45,-6,90,-15,10,-49,69
14934,0,78,1,18,-10,29,-7,80,-11,80,-51,45,-7,04,-14,60,-49,95
14955,0,78,0,20,-9,31,-7,80,-2,00,-46,55,-7,15,-12,71,-49,44
14975,0,29,0,20,-9,31,-2,90,-2,00,-46,55,-6,52,-11,10,-49,01
14993,0,88,0,78,-10,00,-8,80,-7,80,-50,00,-6,86,-10,61,-49,16
15009,0,88,0,78,-10,88,-8,80,-7,80,-54,40,-7,15,-10,19,-49,94
15032,0,88,1,27,-10,88,-8,80,-12,70,-54,40,-7,40,-10,56,-50,61
15050,0,29,0,98,-10,78,-2,90,-9,80,-53,90,-6,72,-10,45,-51,10
15072,0,29,0,78,-10,00,-2,90,-7,80,-50,00,-6,15,-10,05,-50,94
15088,0,49,0,78,-10,00,-4,90,-7,80,-50,00,-5,96,-9,71,-50,80
15107,0,78,0,78,-10,00,-7,80,-7,80,-50,00,-6,24,-9,43,-50,68
15125,0,78,0,78,-10,00,-7,80,-7,80,-50,00,-6,47,-9,18,-50,58
15141,0,78,0,78,-10,00,-7,80,-7,80,-50,00,-6,67,-8,98,-50,49
15157,0,78,0,78,-10,00,-7,80,-7,80,-50,00,-6,84,-8,80,-50,42
15175,0,78,0,29,-10,00,-7,80,-2,90,-50,00,-6,98,-7,91,-50,35
15191,0,78,0,29,-10,19,-7,80,-2,90,-50,95,-7,11,-7,16,-50,44
15207,0,29,0,29,-10,19,-2,90,-2,90,-50,95,-6,48,-6,52,-50,52
15223,0,29,-0,29,-9,90,-2,90,2,90,-49,50,-5,94,-5,11,-50,37
15240,0,00,-0,29,-9,90,-0,00,2,90,-49,50,-5,05,-3,91,-50,24
15257,0,49,0,10,-10,19,-4,90,-1,00,-50,95,-5,05,-3,47,-50,34
15274,0,49,0,10,-10,19,-4,90,-1,00,-50,95,-5,05,-3,10,-50,43
15292,0,29,-0,39,-10,00,-2,90,3,90,-50,00,-4,73,-2,05,-50,37
15309,0,29,-0,39,-9,70,-2,90,3,90,-48,50,-4,45,-1,16,-50,09
15325,0,20,-0,29,-9,70,-2,00,2,90,-48,50,-4,08,-0,55,-49,85
15344,0,20,-0,29,-9,60,-2,00,2,90,-48,00,-3,77,-0,03,-49,57
15367,0,20,-0,39,-10,00,-2,00,3,90,-50,00,-3,51,0,56,-49,64
15390,0,49,-0,39,-10,00,-4,90,3,90,-50,00,-3,72,1,06,-49,69
15417,0,49,-0,20,-10,29,-4,90,2,00,-51,45,-3,89,1,20,-49,96
15441,0,49,-0,10,-10,39,-4,90,1,00,-51,95,-4,04,1,17,-50,25
15467,0,29,-0,20,-10,09,-2,90,2,00,-50,45,-3,87,1,29,-50,25
15487,0,49,-0,20,-10,09,-4,90,2,00,-50,45,-4,03,1,40,-50,25
15505,0,29,-0,39,-10,00,-2,90,3,90,-50,00,-3,86,1,78,-50,22
15524,0,29,-0,39,-10,00,-2,90,3,90,-50,00,-3,71,2,09,-50,18
15541,0,29,-0,39,-10,00,-2,90,3,90,-50,00,-3,59,2,36,-50,18
15559,0,49,-0,20,-10,29,-4,90,2,00,-51,45,-3,79,2,31,-50,37
15578,0,49,-0,20,-10,49,-4,90,2,00,-52,45,-3,95,2,26,-50,69
15597,0,49,0,00,-10,49,-4,90,-0,00,-52,45,-4,10,1,92,-50,95
15619,0,49,-0,10,-10,19,-4,90,1,00,-50,95,-4,22,1,79,-50,95
15635,0,49,-0,10,-10,19,-4,90,1,00,-50,95,-4,32,1,67,-50,95
15660,0,29,-0,20,-10,09,-2,90,2,00,-50,45,-4,11,1,72,-50,87
15680,0,49,-0,20,-10,29,-4,90,2,00,-51,45,-4,23,1,76,-50,96
15722,0,49,-0,20,-10,29,-4,90,2,00,-51,45,-4,33,1,80,-51,03
15767,0,00,-0,29,-10,00,-0,00,2,90,-50,00,-3,68,1,96,-50,88
15798,0,49,-0,39,-10,29,-4,90,3,90,-51,45,-3,86,2,25,-50,96
15882,0,49,-0,10,-10,19,-4,90,1,00,-50,95,-4,02,2,06,-50,96
15929,0,29,-0,20,-10,29,-2,90,2,00,-51,45,-3,85,2,06,-51,04
15994,0,49,-0,20,-10,39,-4,90,2,00,-51,95,-4,01,2,06,-51,17
16088,0,49,-0,20,-9,90,-4,90,2,00,-49,50,-4,14,2,06,-50,92
16130,0,29,-0,29,-9,90,-2,90,2,90,-49,50,-3,95,2,19,-50,71
16166,0,49,-0,20,-10,29,-4,90,2,00,-51,45,-4,10,2,19,-50,82
16193,0,29,-0,10,-10,39,-2,90,1,00,-51,95,-3,92,2,01,-50,99
16225,0,29,-0,10,-10,39,-2,90,1,00,-51,95,-3,76,1,86,-51,13
16253,0,29,-0,10,-10,39,-2,90,1,00,-51,95,-3,63,1,73,-51,26
16293,-0,29,-0,59,-8,43,2,90,5,90,-42,15,-2,65,2,36,-49,89
16322,-0,20,0,10,-9,41,2,00,-1,00,-47,05,-1,96,1,85,-49,46
16347,-0,20,0,59,-10,98,2,00,-5,90,-54,90,-1,36,0,69,-50,28
16376,-0,20,0,59,-10,98,2,00,-5,90,-54,90,-0,86,-0,30,-50,97
16404,-0,20,0,69,-11,37,2,00,-6,90,-56,85,-0,43,-1,29,-51,85
16427,0,00,0,59,-10,78,-0,00,-5,90,-53,90,-0,37,-1,98,-52,16
16453,-0,20,0,59,-8,72,2,00,-5,90,-43,60,-0,01,-2,57,-50,88
16478,-0,59,-0,59,-8,72,5,90,5,90,-43,60,0,88,-1,30,-49,79
16506,-0,49,0,20,-9,90,4,90,-2,00,-49,50,1,48,-1,40,-49,74
16531,-0,20,0,59,-10,00,2,00,-5,90,-50,00,1,56,-2,08,-49,78
16553,-0,20,0,29,-10,19,2,00,-2,90,-50,95,1,62,-2,20,-49,96
16571,-0,20,0,29,-10,49,2,00,-2,90,-52,45,1,68,-2,31,-50,33
16598,-0,20,0,49,-10,49,2,00,-4,90,-52,45,1,73,-2,70,-50,65
16614,0,00,0,29,-9,41,-0,00,-2,90,-47,05,1,47,-2,73,-50,11
16631,0,00,0,29,-9,90,-0,00,-2,90,-49,50,1,25,-2,73,-50,02
16650,-0,29,0,69,-9,90,2,90,-6,90,-49,50,1,50,-3,35,-49,94
16669,-0,29,0,98,-11,07,2,90,-9,80,-55,35,1,71,-4,32,-50,75
16692,0,49,0,98,-11,07,-4,90,-9,80,-55,35,0,72,-5,14,-51,44
16709,-0,29,1,67,-11,07,2,90,-16,70,-55,35,1,04,-6,88,-52,03
16725,-0,29,1,67,-11,07,2,90,-16,70,-55,35,1,32,-8,35,-52,53
16741,-0,29,1,67,-11,07,2,90,-16,70,-55,35,1,56,-9,60,-52,95
16762,-0,78,1,37,-9,80,7,80,-13,70,-49,00,2,49,-10,22,-52,36
16777,-0,78,1,37,-9,80,7,80,-13,70,-49,00,3,29,-10,74,-51,85
16798,-0,78,1,37,-9,80,7,80,-13,70,-49,00,3,97,-11,18,-51,43
16822,-1,27,0,98,-10,09,12,70,-9,80,-50,45,5,28,-10,98,-51,28
16844,-1,27,0,98,-9,80,12,70,-9,80,-49,00,6,39,-10,80,-50,94
16867,-0,88,1,57,-10,00,8,80,-15,70,-50,00,6,75,-11,53,-50,80
16885,-0,88,1,57,-10,00,8,80,-15,70,-50,00,7,06,-12,16,-50,68
16903,-0,88,1,37,-9,51,8,80,-13,70,-47,55,7,32,-12,39,-50,21
16921,-0,59,1,37,-9,51,5,90,-13,70,-47,55,7,11,-12,59,-49,81
16939,-0,88,1,86,-10,39,8,80,-18,60,-51,95,7,36,-13,49,-50,13
16957,-0,88,1,86,-10,39,8,80,-18,60,-51,95,7,58,-14,26,-50,40
16975,-0,78,2,16,-10,29,7,80,-21,60,-51,45,7,61,-15,36,-50,56
16992,-0,78,2,16,-9,90,7,80,-21,60,-49,50,7,61,-16,29,-50,40
17009,-0,29,1,86,-9,90,2,90,-18,60,-49,50,6,90,-16,64,-50,27
17027,-0,29,2,35,-10,29,2,90,-23,50,-51,45,6,30,-17,67,-50,44
17043,-0,20,2,35,-10,29,2,00,-23,50,-51,45,5,66,-18,54,-50,59
17061,-0,49,2,25,-9,80,4,90,-22,50,-49,00,5,54,-19,14,-50,36
17077,-0,49,2,25,-9,80,4,90,-22,50,-49,00,5,45,-19,64,-50,15
17093,-0,49,2,45,-9,60,4,90,-24,50,-48,00,5,37,-20,37,-49,83
17110,-0,49,2,45,-10,09,4,90,-24,50,-50,45,5,30,-20,99,-49,92
17126,-1,08,2,65,-10,09,10,80,-26,50,-50,45,6,12,-21,82,-50,00
17142,-1,08,2,65,-9,70,10,80,-26,50,-48,50,6,82,-22,52,-49,78
17159,-0,49,3,53,-9,70,4,90,-35,30,-48,50,6,53,-24,44,-49,58
17175,-0,49,3,63,-9,41,4,90,-36,30,-47,05,6,29,-26,22,-49,20
17191,0,20,3,63,-9,41,-2,00,-36,30,-47,05,5,05,-27,73,-48,88
17210,0,20,3,63,-9,41,-2,00,-36,30,-47,05,3,99,-29,01,-48,61
17226,0,20,3,63,-9,41,-2,00,-36,30,-47,05,3,09,-30,11,-48,37
17244,0,00,3,82,-9,90,-0,00,-38,20,-49,50,2,63,-31,32,-48,54
17262,0,00,3,82,-9,11,-0,00,-38,20,-45,55,2,23,-32,35,-48,09
17278,0,00,4,02,-9,11,-0,00,-40,20,-45,55,1,90,-33,53,-47,71
17294,0,00,4,41,-9,11,-0,00,-44,10,-45,55,1,61,-35,12,-47,39
17310,-0,20,4,41,-9,11,2,00,-44,10,-45,55,1,67,-36,46,-47,11
17326,-0,20,4,61,-8,82,2,00,-46,10,-44,10,1,72,-37,91,-46,66
17343,0,00,4,61,-8,82,-0,00,-46,10,-44,10,1,46,-39,14,-46,28
17358,0,29,4,41,-8,43,-2,90,-44,10,-42,15,0,81,-39,88,-45,66
17374,0,29,4,41,-8,43,-2,90,-44,10,-42,15,0,25,-40,51,-45,13
17394,0,20,4,70,-8,72,-2,00,-47,00,-43,60,-0,09,-41,49,-44,90
17411,0,20,4,70,-8,33,-2,00,-47,00,-41,65,-0,37,-42,31,-44,41
17429,0,49,5,00,-8,33,-4,90,-50,00,-41,65,-1,05,-43,47,-44,00
17445,0,49,5,29,-8,72,-4,90,-52,90,-43,60,-1,63,-44,88,-43,94
17461,0,49,5,29,-8,72,-4,90,-52,90,-43,60,-2,12,-46,08,-43,89
17481,0,20,5,68,-8,13,-2,00,-56,80,-40,65,-2,12,-47,69,-43,40
17499,0,20,5,68,-7,84,-2,00,-56,80,-39,20,-2,12,-49,06,-42,77
17515,0,29,5,78,-7,84,-2,90,-57,80,-39,20,-2,24,-50,37,-42,24
17532,0,29,5,78,-8,43,-2,90,-57,80,-42,15,-2,34,-51,48,-42,24
17548,0,59,6,08,-8,43,-5,90,-60,80,-42,15,-2,87,-52,88,-42,24
17564,0,59,5,98,-7,64,-5,90,-59,80,-38,20,-3,33,-53,92,-41,63
17580,0,49,5,98,-7,64,-4,90,-59,80,-38,20,-3,56,-54,80,-41,12
17596,0,49,6,17,-7,15,-4,90,-61,70,-35,75,-3,76,-55,84,-40,31
17612,0,59,6,17,-7,15,-5,90,-61,70,-35,75,-4,08,-56,72,-39,63
17634,0,59,6,17,-7,15,-5,90,-61,70,-35,75,-4,36,-57,46,-39,05
17652,0,59,6,17,-7,15,-5,90,-61,70,-35,75,-4,59,-58,10,-38,55
17671,0,49,6,37,-7,15,-4,90,-63,70,-35,75,-4,63,-58,94,-38,13
17690,0,49,6,96,-7,84,-4,90,-69,60,-39,20,-4,67,-60,54,-38,29
17706,0,49,6,96,-7,84,-4,90,-69,60,-39,20,-4,71,-61,90,-38,43
17722,0,78,6,86,-7,55,-7,80,-68,60,-37,75,-5,17,-62,90,-38,33
17739,0,78,6,86,-6,76,-7,80,-68,60,-33,80,-5,57,-63,76,-37,65
17757,0,59,7,06,-6,76,-5,90,-70,60,-33,80,-5,62,-64,78,-37,07
17773,0,59,7,06,-6,57,-5,90,-70,60,-32,85,-5,66,-65,66,-36,44
17790,0,59,7,06,-6,57,-5,90,-70,60,-32,85,-5,69,-66,40,-35,90
17808,0,78,7,35,-6,37,-7,80,-73,50,-31,85,-6,01,-67,46,-35,29
17832,0,78,7,35,-7,06,-7,80,-73,50,-35,30,-6,28,-68,37,-35,29
17849,0,78,7,74,-7,06,-7,80,-77,40,-35,30,-6,51,-69,72,-35,29
17866,0,78,7,64,-6,47,-7,80,-76,40,-32,35,-6,70,-70,72,-34,85
17882,0,88,7,64,-6,47,-8,80,-76,40,-32,35,-7,02,-71,58,-34,48
17899,0,78,7,55,-6,17,-7,80,-75,50,-30,85,-7,13,-72,16,-33,93
17921,0,78,7,55,-6,27,-7,80,-75,50,-31,35,-7,23,-72,67,-33,54
17942,0,78,7,84,-6,27,-7,80,-78,40,-31,35,-7,32,-73,53,-33,22
17959,0,78,7,94,-5,88,-7,80,-79,40,-29,40,-7,39,-74,41,-32,64
17975,0,78,7,94,-5,88,-7,80,-79,40,-29,40,-7,45,-75,16,-32,16
17991,0,88,8,13,-5,88,-8,80,-81,30,-29,40,-7,65,-76,08,-31,74
18007,0,88,8,13,-5,88,-8,80,-81,30,-29,40,-7,83,-76,86,-31,39
18023,0,78,8,23,-5,78,-7,80,-82,30,-28,90,-7,83,-77,68,-31,02
18041,0,78,8,23,-5,78,-7,80,-82,30,-28,90,-7,83,-78,37,-30,70
18057,0,78,8,23,-5,78,-7,80,-82,30,-28,90,-7,83,-78,96,-30,43
18073,0,78,8,23,-5,88,-7,80,-82,30,-29,40,-7,83,-79,46,-30,28
18090,0,78,8,13,-5,88,-7,80,-81,30,-29,40,-7,83,-79,74,-30,14
18106,0,78,8,04,-5,29,-7,80,-80,40,-26,45,-7,83,-79,84,-29,59
18122,0,88,8,04,-5,29,-8,80,-80,40,-26,45,-7,97,-79,92,-29,12
18139,0,88,8,23,-5,19,-8,80,-82,30,-25,95,-8,10,-80,28,-28,64
18156,0,88,8,23,-5,19,-8,80,-82,30,-25,95,-8,20,-80,58,-28,24
18174,0,88,8,33,-5,10,-8,80,-83,30,-25,50,-8,29,-80,99,-27,83
18190,0,88,8,33,-5,19,-8,80,-83,30,-25,95,-8,37,-81,34,-27,55
18206,0,78,8,43,-5,19,-7,80,-84,30,-25,95,-8,28,-81,78,-27,31
18223,0,78,8,43,-5,19,-7,80,-84,30,-25,95,-8,21,-82,16,-27,10
18244,0,78,8,43,-5,19,-7,80,-84,30,-25,95,-8,15,-82,48,-26,93
18262,0,88,8,53,-5,10,-8,80,-85,30,-25,50,-8,25,-82,90,-26,72
18281,0,88,8,53,-4,61,-8,80,-85,30,-23,05,-8,33,-83,26,-26,17
18297,0,78,8,43,-4,61,-7,80,-84,30,-23,05,-8,25,-83,42,-25,70
18313,0,78,8,43,-4,90,-7,80,-84,30,-24,50,-8,18,-83,55,-25,52
18328,0,78,8,72,-4,90,-7,80,-87,20,-24,50,-8,13,-84,10,-25,37
18344,0,78,8,62,-4,80,-7,80,-86,20,-24,00,-8,08,-84,41,-25,16
18361,0,78,8,62,-4,80,-7,80,-86,20,-24,00,-8,03,-84,68,-24,99
18377,0,78,8,43,-4,21,-7,80,-84,30,-21,05,-8,00,-84,62,-24,40
18393,0,78,8,43,-4,21,-7,80,-84,30,-21,05,-8,00,-84,58,-23,89
18409,0,59,8,43,-4,02,-5,90,-84,30,-20,10,-7,68,-84,53,-23,33
18426,0,59,8,43,-4,02,-5,90,-84,30,-20,10,-7,42,-84,50,-22,84
18442,0,88,9,02,-4,70,-8,80,-90,20,-23,50,-7,62,-85,35,-22,94
18458,0,88,9,02,-4,70,-8,80,-90,20,-23,50,-7,80,-86,08,-23,02
18474,0,88,9,02,-4,70,-8,80,-90,20,-23,50,-7,95,-86,70,-23,10
18490,0,88,9,02,-4,70,-8,80,-90,20,-23,50,-8,08,-87,22,-23,16
18508,0,88,9,02,-4,70,-8,80,-90,20,-23,50,-8,19,-87,67,-23,21
18524,0,88,9,02,-5,00,-8,80,-90,20,-25,00,-8,28,-88,05,-23,48
18540,0,88,9,02,-5,00,-8,80,-90,20,-25,00,-8,36,-88,37,-23,71
18556,0,88,8,72,-4,12,-8,80,-87,20,-20,60,-8,42,-88,20,-23,24
18573,0,78,8,72,-4,12,-7,80,-87,20,-20,60,-8,33,-88,05,-22,84
18591,0,78,8,92,-3,63,-7,80,-89,20,-18,15,-8,25,-88,22,-22,14
18607,0,78,8,92,-3,63,-7,80,-89,20,-18,15,-8,18,-88,37,-21,54
18623,0,88,9,02,-3,72,-8,80,-90,20,-18,60,-8,28,-88,64,-21,10
18640,0,88,9,02,-3,92,-8,80,-90,20,-19,60,-8,35,-88,88,-20,87
18656,0,78,8,92,-3,92,-7,80,-89,20,-19,60,-8,27,-88,92,-20,68
18675,0,78,9,02,-4,12,-7,80,-90,20,-20,60,-8,20,-89,12,-20,68
18695,0,88,9,02,-4,12,-8,80,-90,20,-20,60,-8,29,-89,28,-20,68
18711,0,78,8,92,-3,92,-7,80,-89,20,-19,60,-8,22,-89,28,-20,52
18727,0,78,8,92,-3,92,-7,80,-89,20,-19,60,-8,15,-89,28,-20,38
18742,0,78,9,02,-3,33,-7,80,-90,20,-16,65,-8,10,-89,42,-19,82
18758,0,78,9,02,-3,33,-7,80,-90,20,-16,65,-8,06,-89,53,-19,35
18775,0,78,9,21,-3,33,-7,80,-92,10,-16,65,-8,02,-89,92,-18,94
18800,0,78,9,31,-3,92,-7,80,-93,10,-19,60,-7,98,-90,40,-19,04
18819,0,88,9,31,-3,53,-8,80,-93,10,-17,65,-8,11,-90,80,-18,83
18838,1,27,9,21,-3,53,-12,70,-92,10,-17,65,-8,80,-91,00,-18,66
18859,1,27,9,21,-3,53,-12,70,-92,10,-17,65,-9,38,-91,16,-18,50
18877,1,27,9,21,-2,74,-12,70,-92,10,-13,70,-9,88,-91,30,-17,78
18896,0,88,8,92,-2,74,-8,80,-89,20,-13,70,-9,72,-90,99,-17,17
18920,0,88,9,02,-2,84,-8,80,-90,20,-14,20,-9,58,-90,87,-16,73
18942,0,59,9,02,-3,43,-5,90,-90,20,-17,15,-9,03,-90,77,-16,79
18961,0,78,9,31,-3,43,-7,80,-93,10,-17,15,-8,84,-91,12,-16,84
18980,0,88,9,31,-3,43,-8,80,-93,10,-17,15,-8,84,-91,42,-16,89
19000,0,88,9,31,-2,55,-8,80,-93,10,-12,75,-8,84,-91,67,-16,27
19020,0,88,9,21,-2,55,-8,80,-92,10,-12,75,-8,84,-91,73,-15,74
19036,0,88,9,60,-2,84,-8,80,-96,00,-14,20,-8,84,-92,37,-15,51
19066,0,88,9,70,-2,74,-8,80,-97,00,-13,70,-8,84,-93,07,-15,24
19082,0,88,9,70,-2,74,-8,80,-97,00,-13,70,-8,84,-93,66,-15,01
19097,0,78,9,11,-2,25,-7,80,-91,10,-11,25,-8,69,-93,27,-14,44
19118,0,78,9,11,-1,86,-7,80,-91,10,-9,30,-8,55,-92,95,-13,67
19133,1,08,9,60,-1,86,-10,80,-96,00,-9,30,-8,89,-93,41,-13,02
19148,1,08,9,60,-2,45,-10,80,-96,00,-12,25,-9,18,-93,79,-12,90
19164,0,78,9,70,-2,45,-7,80,-97,00,-12,25,-8,97,-94,28,-12,80
19180,0,78,9,70,-2,16,-7,80,-97,00,-10,80,-8,80,-94,68,-12,50
19195,1,27,9,90,-2,16,-12,70,-99,00,-10,80,-9,38,-95,33,-12,25
19211,1,27,9,90,-1,67,-12,70,-99,00,-8,35,-9,88,-95,88,-11,66
19227,1,08,9,51,-1,67,-10,80,-95,10,-8,35,-10,02,-95,76,-11,17
19243,1,08,9,51,-1,27,-10,80,-95,10,-6,35,-10,13,-95,66,-10,44
19259,1,08,9,51,-1,27,-10,80,-95,10,-6,35,-10,23,-95,58,-9,83
19275,1,08,9,70,-1,76,-10,80,-97,00,-8,80,-10,32,-95,79,-9,68
19291,0,88,9,70,-1,76,-8,80,-97,00,-8,80,-10,09,-95,97,-9,54
19306,0,88,9,70,-1,76,-8,80,-97,00,-8,80,-9,90,-96,13,-9,43
19322,0,88,9,70,-1,76,-8,80,-97,00,-8,80,-9,73,-96,26,-9,34
19338,1,08,9,80,-1,67,-10,80,-98,00,-8,35,-9,89,-96,52,-9,19
19355,1,08,9,80,-1,67,-10,80,-98,00,-8,35,-10,03,-96,74,-9,06
19378,1,08,9,51,-1,08,-10,80,-95,10,-5,40,-10,14,-96,50,-8,51
19397,1,08,9,51,-1,08,-10,80,-95,10,-5,40,-10,24,-96,29,-8,05
19413,0,88,9,51,-1,08,-8,80,-95,10,-5,40,-10,03,-96,11,-7,65
19429,1,08,9,51,-0,69,-10,80,-95,10,-3,45,-10,14,-95,96,-7,02
19445,1,08,9,51,-0,69,-10,80,-95,10,-3,45,-10,24,-95,83,-6,48
19462,1,08,9,51,-0,10,-10,80,-95,10,-0,50,-10,32,-95,72,-5,59
19478,1,08,9,51,-0,59,-10,80,-95,10,-2,95,-10,40,-95,63,-5,19
19494,0,88,9,90,-0,59,-8,80,-99,00,-2,95,-10,16,-96,13,-4,86
19510,0,88,9,90,-0,29,-8,80,-99,00,-1,45,-9,95,-96,56,-4,34
19526,0,88,9,70,-0,29,-8,80,-97,00,-1,45,-9,78,-96,63,-3,91
19541,0,88,9,70,-0,59,-8,80,-97,00,-2,95,-9,63,-96,68,-3,77
19557,1,27,9,60,-0,59,-12,70,-96,00,-2,95,-10,09,-96,58,-3,64
19574,1,27,9,60,-0,59,-12,70,-96,00,-2,95,-10,48,-96,49,-3,54
19590,1,27,9,60,-0,59,-12,70,-96,00,-2,95,-10,82,-96,42,-3,45
19606,1,27,9,90,0,00,-12,70,-99,00,0,00,-11,10,-96,81,-2,93
19622,1,08,9,90,0,00,-10,80,-99,00,0,00,-11,05,-97,14,-2,49
19639,1,27,9,51,0,88,-12,70,-95,10,4,40,-11,30,-96,83,-1,46
19660,1,27,9,51,0,88,-12,70,-95,10,4,40,-11,51,-96,57,-0,58
19679,0,88,10,00,0,78,-8,80,-100,00,3,90,-11,10,-97,09,0,09
19699,0,88,9,51,-0,10,-8,80,-95,10,-0,50,-10,76,-96,79,0,00
19715,0,88,9,51,-0,10,-8,80,-95,10,-0,50,-10,46,-96,53,-0,07
19730,0,88,9,51,-0,10,-8,80,-95,10,-0,50,-10,22,-96,32,-0,14
19746,0,88,9,51,-0,10,-8,80,-95,10,-0,50,-10,00,-96,14,-0,19
19762,1,08,9,31,0,98,-10,80,-93,10,4,90,-10,12,-95,68,0,57
19779,1,08,9,31,0,49,-10,80,-93,10,2,45,-10,22,-95,29,0,85
19802,1,37,9,90,0,49,-13,70,-99,00,2,45,-10,75,-95,85,1,09
19821,1,57,10,58,1,57,-15,70,-105,80,7,85,-11,49,-97,34,2,11
19845,1,57,10,58,1,57,-15,70,-105,80,7,85,-12,12,-98,61,2,97
19869,1,57,10,58,1,67,-15,70,-105,80,8,35,-12,66,-99,69,3,78
19890,0,88,9,21,1,67,-8,80,-92,10,8,35,-12,08,-98,55,4,46
19910,1,37,10,29,0,20,-13,70,-102,90,1,00,-12,32,-99,20,3,94
19927,1,37,10,29,0,20,-13,70,-102,90,1,00,-12,53,-99,76,3,50
19943,0,78,9,31,2,55,-7,80,-93,10,12,75,-11,82,-98,76,4,89
19959,0,78,9,31,2,35,-7,80,-93,10,11,75,-11,22,-97,91,5,92
19975,0,88,9,51,2,35,-8,80,-95,10,11,75,-10,85,-97,49,6,79
19993,0,88,9,70,1,86,-8,80,-97,00,9,30,-10,55,-97,42,7,17
20009,1,08,9,70,1,86,-10,80,-97,00,9,30,-10,58,-97,35,7,49
20025,1,08,9,70,1,86,-10,80,-97,00,9,30,-10,62,-97,30,7,76
20041,1,27,9,70,1,86,-12,70,-97,00,9,30,-10,93,-97,26,7,99
20057,1,27,9,41,2,06,-12,70,-94,10,10,30,-11,19,-96,78,8,34
20072,1,27,9,41,2,06,-12,70,-94,10,10,30,-11,42,-96,38,8,63
20089,0,88,9,31,1,37,-8,80,-93,10,6,85,-11,03,-95,89,8,36
20106,0,88,9,31,1,37,-8,80,-93,10,6,85,-10,69,-95,47,8,14
20122,0,88,9,31,1,37,-8,80,-93,10,6,85,-10,41,-95,11,7,94
20138,0,88,9,31,0,20,-8,80,-93,10,1,00,-10,17,-94,81,6,90
20155,1,67,10,29,0,20,-16,70,-102,90,1,00,-11,15,-96,03,6,02
20172,1,67,9,90,1,18,-16,70,-99,00,5,90,-11,98,-96,47,6,02
20189,1,57,9,90,1,18,-15,70,-99,00,5,90,-12,54,-96,85,6,02
20206,1,57,8,53,3,14,-15,70,-85,30,15,70,-13,01,-95,12,7,47
20222,0,78,8,53,3,14,-7,80,-85,30,15,70,-12,23,-93,65,8,70
20239,1,27,9,70,1,08,-12,70,-97,00,5,40,-12,30,-94,15,8,21
20256,1,27,9,70,1,08,-12,70,-97,00,5,40,-12,36,-94,58,7,79
20274,1,37,9,90,1,18,-13,70,-99,00,5,90,-12,56,-95,24,7,50
20292,1,37,9,70,1,47,-13,70,-97,00,7,35,-12,73,-95,50,7,50
20314,1,08,9,70,1,47,-10,80,-97,00,7,35,-12,44,-95,73,7,50
20340,1,08,10,09,0,69,-10,80,-100,90,3,45,-12,20,-96,50,6,90
20358,1,57,9,21,1,96,-15,70,-92,10,9,80,-12,72,-95,84,7,33
20383,1,27,9,21,2,25,-12,70,-92,10,11,25,-12,72,-95,28,7,92
20407,0,59,8,72,2,25,-5,90,-87,20,11,25,-11,70,-94,07,8,42
20428,0,88,9,70,1,47,-8,80,-97,00,7,35,-11,26,-94,51,8,26
20445,0,88,9,80,0,78,-8,80,-98,00,3,90,-10,89,-95,03,7,60
20462,1,08,9,80,0,78,-10,80,-98,00,3,90,-10,89,-95,48,7,05
20480,1,27,9,70,0,69,-12,70,-97,00,3,45,-11,17,-95,71,6,51
20496,1,27,9,70,0,69,-12,70,-97,00,3,45,-11,40,-95,90,6,05
20512,1,37,9,41,1,47,-13,70,-94,10,7,35,-11,74,-95,63,6,25
20527,1,37,9,41,1,47,-13,70,-94,10,7,35,-12,03,-95,40,6,41
20543,1,27,9,60,1,76,-12,70,-96,00,8,80,-12,13,-95,49,6,77
20559,1,27,9,60,1,76,-12,70,-96,00,8,80,-12,22,-95,57,7,07
20575,1,27,9,60,1,76,-12,70,-96,00,8,80,-12,29,-95,63,7,33
20591,1,27,9,60,1,47,-12,70,-96,00,7,35,-12,35,-95,69,7,33
20607,1,27,9,70,1,47,-12,70,-97,00,7,35,-12,40,-95,88,7,33
20624,1,27,9,90,1,47,-12,70,-99,00,7,35,-12,45,-96,35,7,33
20640,1,57,9,90,1,47,-15,70,-99,00,7,35,-12,94,-96,75,7,33
20656,1,27,9,41,1,47,-12,70,-94,10,7,35,-12,90,-96,35,7,33
20673,1,27,9,41,1,47,-12,70,-94,10,7,35,-12,87,-96,01,7,33
20690,1,08,9,51,1,18,-10,80,-95,10,5,90,-12,56,-95,88,7,12
20710,1,08,9,51,1,37,-10,80,-95,10,6,85,-12,30,-95,76,7,08
20728,1,37,9,51,1,37,-13,70,-95,10,6,85,-12,51,-95,66,7,04
20746,1,37,9,80,1,37,-13,70,-98,00,6,85,-12,69,-96,01,7,04
20764,1,08,9,80,1,37,-10,80,-98,00,6,85,-12,40,-96,31,7,04
20780,1,08,9,41,1,76,-10,80,-94,10,8,80,-12,16,-95,98,7,31
20804,1,08,9,41,1,96,-10,80,-94,10,9,80,-11,96,-95,70,7,68
20827,1,08,9,02,1,96,-10,80,-90,20,9,80,-11,78,-94,87,8,00
20856,1,27,9,90,0,88,-12,70,-99,00,4,40,-11,92,-95,49,7,46
20880,1,08,9,41,1,27,-10,80,-94,10,6,35,-11,75,-95,28,7,29
20903,1,08,9,31,1,57,-10,80,-93,10,7,85,-11,61,-94,96,7,38
20931,1,08,9,80,1,37,-10,80,-98,00,6,85,-11,49,-95,41,7,30
20955,1,08,9,80,1,37,-10,80,-98,00,6,85,-11,39,-95,80,7,23
20980,1,08,9,80,1,27,-10,80,-98,00,6,35,-11,30,-96,13,7,10
21000,0,88,9,60,1,27,-8,80,-96,00,6,35,-10,92,-96,13,6,99
21023,1,08,9,70,1,47,-10,80,-97,00,7,35,-10,92,-96,26,7,04
21049,1,08,9,60,1,27,-10,80,-96,00,6,35,-10,92,-96,22,6,94
21074,0,78,9,60,0,98,-7,80,-96,00,4,90,-10,45,-96,19,6,63
21100,0,88,9,60,0,98,-8,80,-96,00,4,90,-10,21,-96,19,6,37
21132,0,88,9,60,1,18,-8,80,-96,00,5,90,-10,00,-96,19,6,30
21154,0,88,9,51,1,18,-8,80,-95,10,5,90,-9,82,-96,03,6,24
21179,0,88,9,60,1,27,-8,80,-96,00,6,35,-9,66,-96,03,6,24
21200,0,88,9,60,1,27,-8,80,-96,00,6,35,-9,53,-96,03,6,24
21223,0,88,9,60,1,27,-8,80,-96,00,6,35,-9,42,-96,03,6,24
21244,0,78,9,60,1,27,-7,80,-96,00,6,35,-9,18,-96,03,6,24
21267,0,78,9,60,1,27,-7,80,-96,00,6,35,-8,97,-96,03,6,24
21286,0,78,9,80,1,37,-7,80,-98,00,6,85,-8,80,-96,32,6,33
21313,0,88,9,80,1,27,-8,80,-98,00,6,35,-8,80,-96,57,6,33
21333,0,88,9,60,1,27,-8,80,-96,00,6,35,-8,80,-96,49,6,33
21357,0,88,9,60,0,98,-8,80,-96,00,4,90,-8,80,-96,41,6,12
21378,0,88,9,60,0,98,-8,80,-96,00,4,90,-8,80,-96,35,5,93
21402,0,88,9,60,1,08,-8,80,-96,00,5,40,-8,80,-96,30,5,85
21420,0,59,9,70,1,08,-5,90,-97,00,5,40,-8,36,-96,40,5,79
21446,0,78,9,41,1,27,-7,80,-94,10,6,35,-8,28,-96,06,5,87
21469,0,78,9,51,1,18,-7,80,-95,10,5,90,-8,21,-95,91,5,87
21490,0,78,9,51,1,47,-7,80,-95,10,7,35,-8,15,-95,79,6,09
21507,0,78,9,70,1,47,-7,80,-97,00,7,35,-8,09,-95,97,6,28
21529,0,78,9,60,1,27,-7,80,-96,00,6,35,-8,05,-95,97,6,28
21548,0,78,9,60,0,88,-7,80,-96,00,4,40,-8,01,-95,97,6,00
21568,0,88,9,70,0,88,-8,80,-97,00,4,40,-8,13,-96,13,5,76
21590,0,88,9,60,1,27,-8,80,-96,00,6,35,-8,23,-96,13,5,85
21606,0,78,9,60,1,27,-7,80,-96,00,6,35,-8,17,-96,13,5,92
21623,0,78,9,80,0,98,-7,80,-98,00,4,90,-8,11,-96,41,5,77
21641,0,78,9,80,1,27,-7,80,-98,00,6,35,-8,06,-96,65,5,86
21661,0,78,9,41,1,27,-7,80,-94,10,6,35,-8,02,-96,27,5,93
21685,0,78,9,80,0,98,-7,80,-98,00,4,90,-7,99,-96,53,5,78
21715,0,78,9,70,0,88,-7,80,-97,00,4,40,-7,99,-96,60,5,57
21739,0,78,9,51,1,18,-7,80,-95,10,5,90,-7,99,-96,37,5,62
21763,0,59,9,51,0,78,-5,90,-95,10,3,90,-7,68,-96,18,5,36
21785,0,59,9,60,0,78,-5,90,-96,00,3,90,-7,41,-96,18,5,14
21812,0,59,9,60,0,78,-5,90,-96,00,3,90,-7,18,-96,18,4,96
21830,0,78,9,80,0,78,-7,80,-98,00,3,90,-7,28,-96,45,4,80
21850,0,78,9,80,1,27,-7,80,-98,00,6,35,-7,36,-96,69,5,03
21868,0,78,9,60,1,27,-7,80,-96,00,6,35,-7,42,-96,58,5,23
21888,0,78,9,70,1,08,-7,80,-97,00,5,40,-7,48,-96,65,5,23
21908,0,78,9,70,1,08,-7,80,-97,00,5,40,-7,53,-96,70,5,23
21924,0,78,9,70,1,08,-7,80,-97,00,5,40,-7,57,-96,74,5,23
21943,0,78,9,60,0,78,-7,80,-96,00,3,90,-7,60,-96,63,5,03
21964,0,78,9,60,0,78,-7,80,-96,00,3,90,-7,60,-96,54,4,86
21982,0,49,9,51,0,69,-4,90,-95,10,3,45,-7,20,-96,32,4,65
22002,0,49,9,51,0,78,-4,90,-95,10,3,90,-6,85,-96,14,4,54
22023,0,49,9,60,0,78,-4,90,-96,00,3,90,-6,56,-96,14,4,44
22048,0,88,9,70,1,08,-8,80,-97,00,5,40,-6,90,-96,27,4,58
22066,0,88,9,80,0,98,-8,80,-98,00,4,90,-7,18,-96,53,4,63
22087,0,78,9,80,0,98,-7,80,-98,00,4,90,-7,27,-96,75,4,67
22109,0,59,9,70,1,08,-5,90,-97,00,5,40,-7,07,-96,79,4,78
22131,0,59,9,51,0,88,-5,90,-95,10,4,40,-6,89,-96,53,4,72
22151,0,78,9,51,0,78,-7,80,-95,10,3,90,-7,03,-96,32,4,60
22171,0,59,9,80,0,78,-5,90,-98,00,3,90,-6,86,-96,57,4,50
22201,0,59,9,51,0,88,-5,90,-95,10,4,40,-6,72,-96,35,4,50
22219,0,59,9,51,0,88,-5,90,-95,10,4,40,-6,59,-96,16,4,50
22245,0,59,9,70,0,88,-5,90,-97,00,4,40,-6,49,-96,29,4,50
22264,0,59,9,70,0,88,-5,90,-97,00,4,40,-6,40,-96,39,4,50
22287,0,49,9,70,0,88,-4,90,-97,00,4,40,-6,18,-96,49,4,50
22311,0,49,9,51,0,88,-4,90,-95,10,4,40,-5,98,-96,28,4,50
22336,0,59,9,51,0,78,-5,90,-95,10,3,90,-5,98,-96,10,4,41
22363,0,59,9,80,0,98,-5,90,-98,00,4,90,-5,98,-96,39,4,48
22392,0,78,9,80,1,18,-7,80,-98,00,5,90,-6,26,-96,63,4,69
22419,0,78,9,51,1,18,-7,80,-95,10,5,90,-6,49,-96,40,4,87
22440,0,78,9,51,1,18,-7,80,-95,10,5,90,-6,69,-96,20,5,03
22462,0,78,9,51,0,69,-7,80,-95,10,3,45,-6,85,-96,04,4,79
22481,0,78,9,51,0,98,-7,80,-95,10,4,90,-6,99,-95,90,4,79
22501,0,78,9,80,0,98,-7,80,-98,00,4,90,-7,12,-96,21,4,79
22529,0,59,9,70,1,08,-5,90,-97,00,5,40,-6,93,-96,33,4,88
22551,0,59,9,70,0,88,-5,90,-97,00,4,40,-6,78,-96,43,4,81
22569,0,29,9,70,0,78,-2,90,-97,00,3,90,-6,20,-96,52,4,67
22592,0,59,9,80,0,78,-5,90,-98,00,3,90,-6,15,-96,74,4,56
22614,0,59,9,60,0,98,-5,90,-96,00,4,90,-6,11,-96,63,4,61
22633,0,59,9,60,0,98,-5,90,-96,00,4,90,-6,08,-96,53,4,65
22650,0,59,9,60,0,98,-5,90,-96,00,4,90,-6,08,-96,45,4,69
22670,0,29,9,51,0,88,-2,90,-95,10,4,40,-5,60,-96,25,4,65
22699,0,29,9,51,0,69,-2,90,-95,10,3,45,-5,20,-96,08,4,47
22724,0,49,9,51,0,59,-4,90,-95,10,2,95,-5,15,-95,93,4,24
22744,0,49,9,60,0,59,-4,90,-96,00,2,95,-5,12,-95,93,4,05
22766,0,49,9,51,0,88,-4,90,-95,10,4,40,-5,08,-95,81,4,10
22787,0,49,9,70,0,69,-4,90,-97,00,3,45,-5,08,-95,99,4,00
22819,0,59,9,60,0,98,-5,90,-96,00,4,90,-5,21,-95,99,4,14
22848,0,78,9,80,1,37,-7,80,-98,00,6,85,-5,60,-96,29,4,54
22873,0,88,9,80,1,08,-8,80,-98,00,5,40,-6,08,-96,54,4,67
22894,0,78,9,70,1,08,-7,80,-97,00,5,40,-6,33,-96,61,4,78
22919,0,59,9,60,0,98,-5,90,-96,00,4,90,-6,27,-96,52,4,78
22943,0,59,9,70,0,88,-5,90,-97,00,4,40,-6,21,-96,59,4,72
22977,0,78,9,41,1,27,-7,80,-94,10,6,35,-6,45,-96,22,4,97
23003,0,78,9,51,1,18,-7,80,-95,10,5,90,-6,65,-96,05,5,11
23024,0,78,9,70,0,69,-7,80,-97,00,3,45,-6,83,-96,19,4,86
23040,0,49,9,70,0,69,-4,90,-97,00,3,45,-6,54,-96,31,4,65
23056,0,49,9,70,0,69,-4,90,-97,00,3,45,-6,29,-96,42,4,47
23072,0,49,9,70,0,69,-4,90,-97,00,3,45,-6,08,-96,50,4,32
23090,0,59,9,60,0,98,-5,90,-96,00,4,90,-6,08,-96,43,4,40
23112,0,59,9,60,1,27,-5,90,-96,00,6,35,-6,08,-96,36,4,70
23130,0,59,9,60,1,27,-5,90,-96,00,6,35,-6,08,-96,31,4,94
23152,0,59,9,51,0,88,-5,90,-95,10,4,40,-6,08,-96,13,4,86
23174,0,49,9,60,0,78,-4,90,-96,00,3,90,-5,91,-96,13,4,72
23191,0,78,9,60,0,78,-7,80,-96,00,3,90,-6,19,-96,13,4,59
23211,0,59,9,80,0,98,-5,90,-98,00,4,90,-6,15,-96,41,4,64
23239,0,59,9,70,1,08,-5,90,-97,00,5,40,-6,11,-96,50,4,75
23258,0,59,9,70,0,78,-5,90,-97,00,3,90,-6,08,-96,57,4,63
23274,0,78,9,60,0,78,-7,80,-96,00,3,90,-6,34,-96,49,4,52
23290,0,78,9,60,0,98,-7,80,-96,00,4,90,-6,56,-96,41,4,57
23306,0,59,9,80,0,98,-5,90,-98,00,4,90,-6,46,-96,65,4,62
23338,0,78,9,80,0,98,-7,80,-98,00,4,90,-6,66,-96,85,4,67
23354,0,78,9,70,0,88,-7,80,-97,00,4,40,-6,83,-96,85,4,63
23371,0,78,9,70,0,88,-7,80,-97,00,4,40,-6,98,-96,85,4,59
23389,0,59,10,29,-0,20,-5,90,-102,90,-1,00,-6,81,-97,76,3,75
23406,0,59,10,29,-0,20,-5,90,-102,90,-1,00,-6,68,-98,53,3,04
23433,0,49,10,39,-0,88,-4,90,-103,90,-4,40,-6,41,-99,34,1,92
23456,-0,20,11,07,-2,65,2,00,-110,70,-13,25,-5,15,-101,04,-0,35
23483,-0,20,11,07,-2,65,2,00,-110,70,-13,25,-4,08,-102,49,-2,29
23503,-0,20,11,07,-4,12,2,00,-110,70,-20,60,-3,17,-103,72,-5,03
23527,0,49,11,96,-4,12,-4,90,-119,60,-20,60,-3,43,-106,10,-7,37
23554,0,29,12,35,-5,39,-2,90,-123,50,-26,95,-3,35,-108,71,-10,31
23574,0,78,11,86,-5,49,-7,80,-118,60,-27,45,-4,01,-110,20,-12,88
23590,0,78,11,86,-2,84,-7,80,-118,60,-14,20,-4,58,-111,46,-13,08
23608,0,78,9,60,-2,84,-7,80,-96,00,-14,20,-5,07,-109,14,-13,24
23625,0,78,7,55,-3,14,-7,80,-75,50,-15,70,-5,48,-104,09,-13,61
23642,-0,59,7,55,-3,14,5,90,-75,50,-15,70,-3,77,-99,80,-13,93
23658,-0,78,5,98,-4,51,7,80,-59,80,-22,55,-2,03,-93,80,-15,22
23674,-0,78,5,98,-4,51,7,80,-59,80,-22,55,-0,56,-88,70,-16,32
23690,-0,49,4,31,-7,25,4,90,-43,10,-36,25,0,26,-81,86,-19,31
23706,-0,49,4,31,-7,25,4,90,-43,10,-36,25,0,96,-76,05,-21,85
23722,-0,20,4,51,-10,39,2,00,-45,10,-51,95,1,11,-71,41,-26,36
23738,-0,20,4,51,-8,62,2,00,-45,10,-43,10,1,25,-67,46,-28,88
23754,0,00,3,63,-8,62,-0,00,-36,30,-43,10,1,06,-62,79,-31,01
23771,0,00,3,63,-7,55,-0,00,-36,30,-37,75,0,90,-58,81,-32,02
23792,-0,49,2,25,-7,55,4,90,-22,50,-37,75,1,50,-53,37,-32,88
23814,-0,59,2,94,-8,62,5,90,-29,40,-43,10,2,16,-49,77,-34,41
23836,-0,59,3,14,-10,00,5,90,-31,40,-50,00,2,72,-47,02,-36,75
23860,-0,20,3,14,-10,00,2,00,-31,40,-50,00,2,61,-44,67,-38,74
23883,-0,20,3,14,-10,00,2,00,-31,40,-50,00,2,52,-42,68,-40,43
23907,-0,20,2,06,-9,41,2,00,-20,60,-47,05,2,44,-39,37,-41,42
23931,-0,78,1,86,-9,70,7,80,-18,60,-48,50,3,25,-36,25,-42,48
23951,-0,78,1,86,-10,88,7,80,-18,60,-54,40,3,93,-33,61,-44,27
23973,0,59,2,16,-10,88,-5,90,-21,60,-54,40,2,46,-31,81,-45,79
23995,1,67,1,86,-10,58,-16,70,-18,60,-52,90,-0,42,-29,82,-46,86
24016,1,67,2,16,-11,96,-16,70,-21,60,-59,80,-2,86,-28,59,-48,80
24037,0,88,2,16,-11,17,-8,80,-21,60,-55,85,-3,75,-27,54,-49,86
24055,-0,29,1,08,-11,17,2,90,-10,80,-55,85,-2,75,-25,03,-50,75
24077,-0,29,0,78,-8,82,2,90,-7,80,-44,10,-1,91,-22,45,-49,76
24101,-0,78,0,78,-5,59,7,80,-7,80,-27,95,-0,45,-20,25,-46,49
24122,-2,74,-1,57,-5,59,27,40,15,70,-27,95,3,73,-14,86,-43,71
24141,-1,37,-3,92,-6,37,13,70,39,20,-31,85,5,22,-6,75,-41,93
24161,-1,37,-3,92,-8,82,13,70,39,20,-44,10,6,49,0,14,-42,25
24180,-5,29,-1,47,-8,82,52,90,14,70,-44,10,13,46,2,33,-42,53
24198,-5,29,-2,16,-5,88,52,90,21,60,-29,40,19,37,5,22,-40,56
24219,-5,39,-2,16,-4,61,53,90,21,60,-23,05,24,55,7,68,-37,93
24236,-7,74,-1,37,-4,61,77,40,13,70,-23,05,32,48,8,58,-35,70
24257,-8,82,1,47,-10,19,88,20,-14,70,-50,95,40,84,5,09,-37,99
24276,-8,82,1,47,-10,19,88,20,-14,70,-50,95,47,94,2,12,-39,93
24293,-8,82,1,47,-10,19,88,20,-14,70,-50,95,53,98,-0,40,-41,59
24312,-8,82,1,47,-7,64,88,20,-14,70,-38,20,59,11,-2,55,-41,08
24328,-9,41,2,16,-7,64,94,10,-21,60,-38,20,64,36,-5,41,-40,65
24343,-9,41,0,39,-2,16,94,10,-3,90,-10,80,68,82,-5,18,-36,17
24360,-10,68,0,39,-2,16,106,80,-3,90,-10,80,74,52,-4,99,-32,36
24381,-10,98,0,69,-4,41,109,80,-6,90,-22,05,79,81,-5,27,-30,82
24399,-10,98,0,69,-2,55,109,80,-6,90,-12,75,84,31,-5,52,-28,11
24423,-9,90,0,10,-2,55,99,00,-1,00,-12,75,86,51,-4,84,-25,80
24447,-9,90,-1,37,-0,49,99,00,13,70,-2,45,88,39,-2,06,-22,30
24468,-9,90,-0,78,-1,86,99,00,7,80,-9,30,89,98,-0,58,-20,35
24485,-8,92,-0,78,-1,86,89,20,7,80,-9,30,89,86,0,68,-18,69
24512,-9,41,-2,25,0,10,94,10,22,50,0,50,90,50,3,95,-15,81
24532,-11,47,-2,06,-0,49,114,70,20,60,-2,45,94,13,6,45,-13,81
24552,-11,47,-2,06,-0,49,114,70,20,60,-2,45,97,21,8,57,-12,11
24579,-11,47,-2,06,-9,41,114,70,20,60,-47,05,99,84,10,37,-17,35
24597,-10,68,0,78,-9,41,106,80,-7,80,-47,05,100,88,7,65,-21,80
24614,-10,68,-3,53,1,47,106,80,35,30,7,35,101,77,11,80,-17,43
24630,-11,07,-3,53,1,47,110,70,35,30,7,35,103,11,15,32,-13,71
24645,-11,07,-1,08,-1,57,110,70,10,80,-7,85,104,25,14,64,-12,83
24663,-8,82,-1,08,-1,57,88,20,10,80,-7,85,101,84,14,07,-12,09
24679,-5,98,1,18,-10,09,59,80,-11,80,-50,45,95,53,10,19,-17,84
24695,-5,98,1,18,-10,09,59,80,-11,80,-50,45,90,17,6,89,-22,73
24712,-5,98,1,18,-10,09,59,80,-11,80,-50,45,85,62,4,09,-26,89
24728,-5,98,1,18,-6,96,59,80,-11,80,-34,80,81,75,1,70,-28,08
24743,-5,59,0,39,-6,96,55,90,-3,90,-34,80,77,87,0,86,-29,08
24763,-5,59,0,39,-3,72,55,90,-3,90,-18,60,74,57,0,15,-27,51
24783,-6,17,-1,76,-3,72,61,70,17,60,-18,60,72,64,2,77,-26,18
24811,0,49,-3,04,-6,17,-4,90,30,40,-30,85,61,01,6,91,-26,88
24833,0,88,-0,78,-11,76,-8,80,7,80,-58,80,50,54,7,04,-31,66
24863,0,88,-0,78,-10,09,-8,80,7,80,-50,45,41,64,7,16,-34,48
24886,0,00,-0,78,-9,90,-0,00,7,80,-49,50,35,39,7,25,-36,74
24911,1,67,-0,78,-10,68,-16,70,7,80,-53,40,27,58,7,34,-39,24
24934,3,23,0,29,-10,68,-32,30,-2,90,-53,40,18,60,5,80,-41,36
24955,3,72,0,00,-11,27,-37,20,-0,00,-56,35,10,23,4,93,-43,61
24984,3,72,0,00,-10,29,-37,20,-0,00,-51,45,3,11,4,19,-44,78
25013,4,90,-1,27,-9,31,-49,00,12,70,-46,55,-4,70,5,47,-45,05
25040,4,61,-1,27,-5,49,-46,10,12,70,-27,45,-10,91,6,55,-42,41
25064,7,06,-1,27,-7,25,-70,60,12,70,-36,25,-19,87,7,47,-41,49
25091,8,33,-0,98,-7,64,-83,30,9,80,-38,20,-29,38,7,82,-40,99
25114,8,13,-0,98,-7,64,-81,30,9,80,-38,20,-37,17,8,12,-40,57
25138,8,13,-0,98,-7,64,-81,30,9,80,-38,20,-43,79,8,37,-40,22
25155,8,13,-1,76,-6,08,-81,30,17,60,-30,40,-49,42,9,76,-38,75
25175,8,13,-1,76,-6,08,-81,30,17,60,-30,40,-54,20,10,93,-37,49
25198,8,53,-2,16,-6,86,-85,30,21,60,-34,30,-58,86,12,53,-37,01
25215,8,53,-2,06,-7,55,-85,30,20,60,-37,75,-62,83,13,74,-37,12
25242,8,92,-2,06,-7,55,-89,20,20,60,-37,75,-66,78,14,77,-37,22
25259,8,62,-2,35,-7,55,-86,20,23,50,-37,75,-69,70,16,08,-37,30
25288,6,96,-1,86,-7,84,-69,60,18,60,-39,20,-69,70,16,46,-37,58
25308,5,88,-0,98,-8,72,-58,80,9,80,-43,60,-68,06,15,46,-38,49
25328,5,88,-0,98,-7,45,-58,80,9,80,-37,25,-66,67,14,61,-38,30
25345,6,47,-0,98,-7,45,-64,70,9,80,-37,25,-66,38,13,89,-38,14
25361,6,47,-0,98,-8,62,-64,70,9,80,-43,10,-66,13,13,28,-38,89
25376,0,88,-0,88,-8,62,-8,80,8,80,-43,10,-57,53,12,60,-39,52
25393,0,88,-0,49,-7,84,-8,80,4,90,-39,20,-50,22,11,45,-39,47
25409,-0,59,-0,49,-7,84,5,90,4,90,-39,20,-41,80,10,47,-39,43
25425,-0,59,1,27,-7,55,5,90,-12,70,-37,75,-34,65,6,99,-39,18
25445,-2,74,1,27,-7,55,27,40,-12,70,-37,75,-25,34,4,04,-38,96
25464,-2,94,2,45,-10,88,29,40,-24,50,-54,40,-17,13,-0,24,-41,28
25481,-2,94,2,45,-11,66,29,40,-24,50,-58,30,-10,15,-3,88,-43,83
25497,-1,67,2,16,-11,66,16,70,-21,60,-58,30,-6,12,-6,54,-46,00
25514,-1,67,0,39,-10,58,16,70,-3,90,-52,90,-2,70,-6,14,-47,04
25530,1,57,0,39,-10,58,-15,70,-3,90,-52,90,-4,65,-5,81,-47,92
25546,1,57,0,39,-10,58,-15,70,-3,90,-52,90,-6,31,-5,52,-48,66
25562,1,57,0,39,-10,58,-15,70,-3,90,-52,90,-7,72,-5,28,-49,30
25580,0,59,0,10,-10,58,-5,90,-1,00,-52,90,-7,44,-4,64,-49,84
25605,0,59,-0,20,-10,09,-5,90,2,00,-50,45,-7,21,-3,64,-49,93
25622,-0,29,-0,20,-10,09,2,90,2,00,-50,45,-5,69,-2,79,-50,01
25641,-1,27,0,69,-9,90,12,70,-6,90,-49,50,-2,94,-3,41,-49,93
25658,-1,27,0,69,-10,58,12,70,-6,90,-52,90,-0,59,-3,93,-50,38
25675,-1,57,0,59,-10,58,15,70,-5,90,-52,90,1,85,-4,23,-50,76
25690,-1,57,0,59,-10,09,15,70,-5,90,-50,45,3,93,-4,48,-50,71
25706,-1,57,0,69,-10,09,15,70,-6,90,-50,45,5,70,-4,84,-50,67
25722,-1,57,0,69,-9,70,15,70,-6,90,-48,50,7,20,-5,15,-50,35
25738,-1,67,0,29,-9,70,16,70,-2,90,-48,50,8,62,-4,81,-50,07
25754,-1,67,0,20,-9,51,16,70,-2,00,-47,55,9,83,-4,39,-49,69
25771,-1,67,0,20,-9,51,16,70,-2,00,-47,55,10,86,-4,03,-49,37
25793,-1,86,0,29,-9,70,18,60,-2,90,-48,50,12,02,-3,86,-49,24
25819,-1,86,0,69,-10,68,18,60,-6,90,-53,40,13,01,-4,32,-49,86
25840,-1,57,0,69,-11,07,15,70,-6,90,-55,35,13,41,-4,71,-50,69
25864,-1,57,0,98,-11,07,15,70,-9,80,-55,35,13,76,-5,47,-51,39
25887,-1,57,0,69,-10,09,15,70,-6,90,-50,45,14,05,-5,68,-51,25
25912,-1,57,0,10,-9,80,15,70,-1,00,-49,00,14,30,-4,98,-50,91
25934,-1,37,0,20,-9,51,13,70,-2,00,-47,55,14,21,-4,53,-50,40
25953,-1,37,0,20,-9,51,13,70,-2,00,-47,55,14,13,-4,15,-49,98
25972,-1,37,0,20,-9,51,13,70,-2,00,-47,55,14,07,-3,83,-49,61
25990,-1,37,0,20,-9,90,13,70,-2,00,-49,50,14,01,-3,56,-49,61
26007,-1,67,0,69,-9,90,16,70,-6,90,-49,50,14,41,-4,06,-49,61
26023,-1,67,0,59,-10,39,16,70,-5,90,-51,95,14,76,-4,33,-49,96
26040,-1,08,0,59,-10,39,10,80,-5,90,-51,95,14,16,-4,57,-50,26
26061,-1,08,0,69,-10,09,10,80,-6,90,-50,45,13,66,-4,92,-50,26
26083,-1,08,0,69,-9,80,10,80,-6,90,-49,00,13,23,-5,22,-50,07
26104,-1,27,0,39,-9,80,12,70,-3,90,-49,00,13,15,-5,02,-49,91
26121,-1,37,0,69,-10,09,13,70,-6,90,-50,45,13,23,-5,30,-49,99
26148,-1,37,0,78,-10,00,13,70,-7,80,-50,00,13,30,-5,68,-49,99
26166,-1,08,0,78,-10,00,10,80,-7,80,-50,00,12,93,-5,99,-49,99
26185,-1,08,0,88,-9,90,10,80,-8,80,-49,50,12,61,-6,42,-49,92
26202,-1,08,0,69,-9,90,10,80,-6,90,-49,50,12,34,-6,49,-49,86
26218,-1,08,0,69,-9,90,10,80,-6,90,-49,50,12,11,-6,55,-49,80
26234,-1,08,0,69,-10,09,10,80,-6,90,-50,45,11,91,-6,60,-49,90
26250,-1,08,0,69,-10,09,10,80,-6,90,-50,45,11,74,-6,65,-49,98
26266,-1,08,0,69,-9,90,10,80,-6,90,-49,50,11,60,-6,68,-49,91
26288,-1,08,0,69,-10,00,10,80,-6,90,-50,00,11,48,-6,72,-49,91
26306,-1,08,0,78,-10,00,10,80,-7,80,-50,00,11,38,-6,88,-49,91
26326,-1,08,0,78,-10,00,10,80,-7,80,-50,00,11,29,-7,02,-49,91
26345,-1,27,0,78,-10,00,12,70,-7,80,-50,00,11,50,-7,13,-49,91
26361,-1,08,0,78,-10,00,10,80,-7,80,-50,00,11,40,-7,23,-49,91
26377,-1,08,0,78,-10,00,10,80,-7,80,-50,00,11,31,-7,32,-49,91
26396,-1,08,0,78,-10,00,10,80,-7,80,-50,00,11,23,-7,39,-49,91
26412,-1,08,0,78,-10,00,10,80,-7,80,-50,00,11,17,-7,45,-49,91
26428,-1,08,0,78,-10,00,10,80,-7,80,-50,00,11,11,-7,50,-49,91
26444,-1,08,0,88,-10,19,10,80,-8,80,-50,95,11,07,-7,70,-50,07
26459,-1,08,0,88,-10,19,10,80,-8,80,-50,95,11,03,-7,86,-50,20
26475,-1,08,0,78,-10,00,10,80,-7,80,-50,00,10,99,-7,86,-50,20
26496,-1,37,0,78,-10,00,13,70,-7,80,-50,00,11,40,-7,86,-50,20
26514,-1,08,0,69,-10,09,10,80,-6,90,-50,45,11,31,-7,72,-50,24
26529,-1,08,0,69,-10,00,10,80,-6,90,-50,00,11,23,-7,60,-50,20
26545,-0,88,0,59,-10,00,8,80,-5,90,-50,00,10,87,-7,34,-50,17
26560,-0,88,0,59,-10,19,8,80,-5,90,-50,95,10,56,-7,13,-50,29
26575,-1,08,0,88,-10,19,10,80,-8,80,-50,95,10,59,-7,38,-50,39
26592,-1,08,0,88,-10,29,10,80,-8,80,-51,45,10,62,-7,59,-50,55
26607,-1,08,0,78,-10,29,10,80,-7,80,-51,45,10,62,-7,62,-50,68
26623,-1,08,0,59,-9,80,10,80,-5,90,-49,00,10,62,-7,36,-50,43
26639,-1,08,0,59,-9,80,10,80,-5,90,-49,00,10,62,-7,14,-50,22
26655,-1,08,0,69,-9,90,10,80,-6,90,-49,50,10,62,-7,11,-50,11
26671,-1,08,0,69,-9,90,10,80,-6,90,-49,50,10,62,-7,08,-50,02
26689,-1,08,0,98,-10,29,10,80,-9,80,-51,45,10,62,-7,48,-50,23
26705,-1,08,0,98,-10,29,10,80,-9,80,-51,45,10,62,-7,83,-50,41
26725,-0,88,0,78,-10,29,8,80,-7,80,-51,45,10,35,-7,83,-50,57
26745,-0,88,0,69,-9,90,8,80,-6,90,-49,50,10,12,-7,69,-50,41
26763,-0,59,0,69,-9,90,5,90,-6,90,-49,50,9,49,-7,57,-50,27
26786,-0,59,0,69,-9,90,5,90,-6,90,-49,50,8,95,-7,47,-50,16
26806,-0,59,0,59,-10,39,5,90,-5,90,-51,95,8,49,-7,24,-50,43
26830,-0,88,0,59,-9,90,8,80,-5,90,-49,50,8,54,-7,04,-50,29
26855,-0,49,0,69,-9,90,4,90,-6,90,-49,50,7,99,-7,04,-50,17
26875,-0,88,0,39,-9,11,8,80,-3,90,-45,55,8,11,-6,57,-49,48
26896,-0,88,1,18,-8,82,8,80,-11,80,-44,10,8,22,-7,35,-48,67
26918,-1,27,1,18,-10,68,12,70,-11,80,-53,40,8,89,-8,02,-49,38
26935,-1,57,2,16,-10,68,15,70,-21,60,-53,40,9,91,-10,06,-49,98
26957,-1,57,2,35,-10,98,15,70,-23,50,-54,90,10,78,-12,07,-50,72
26974,-0,78,2,35,-10,98,7,80,-23,50,-54,90,10,33,-13,79,-51,35
26993,-0,29,1,96,-10,29,2,90,-19,60,-51,45,9,22,-14,66,-51,35
27009,-0,29,1,96,-10,09,2,90,-19,60,-50,45,8,27,-15,40,-51,21
27026,-0,88,1,86,-10,09,8,80,-18,60,-50,45,8,35,-15,88,-51,10
27045,-0,88,1,76,-10,19,8,80,-17,60,-50,95,8,42,-16,14,-51,10
27063,-0,78,1,76,-10,19,7,80,-17,60,-50,95,8,32,-16,36,-51,10
27082,-0,29,1,76,-10,19,2,90,-17,60,-50,95,7,51,-16,54,-51,10
27104,-0,29,1,86,-9,90,2,90,-18,60,-49,50,6,82,-16,85,-50,86
27122,-0,59,1,86,-9,90,5,90,-18,60,-49,50,6,68,-17,11,-50,65
27138,-0,59,1,37,-9,80,5,90,-13,70,-49,00,6,56,-16,60,-50,41
27158,-0,59,1,37,-9,80,5,90,-13,70,-49,00,6,46,-16,17,-50,20
27186,-0,78,1,57,-9,60,7,80,-15,70,-48,00,6,66,-16,10,-49,87
27210,-0,78,1,57,-9,60,7,80,-15,70,-48,00,6,84,-16,04,-49,59
27235,-0,59,1,47,-9,21,5,90,-14,70,-46,05,6,69,-15,84,-49,06
27258,-0,59,3,14,-10,00,5,90,-31,40,-50,00,6,58,-18,17,-49,20
27279,-1,57,3,14,-10,00,15,70,-31,40,-50,00,7,94,-20,16,-49,32
27304,-1,57,3,14,-10,00,15,70,-31,40,-50,00,9,11,-21,84,-49,42
27324,-0,59,2,35,-10,00,5,90,-23,50,-50,00,8,63,-22,09,-49,51
27340,-0,59,2,35,-9,80,5,90,-23,50,-49,00,8,22,-22,30,-49,43
27356,0,00,1,37,-9,80,-0,00,-13,70,-49,00,6,98,-21,01,-49,37
27372,0,00,1,67,-9,70,-0,00,-16,70,-48,50,5,94,-20,37,-49,24
27392,-0,59,1,67,-9,70,5,90,-16,70,-48,50,5,94,-19,82,-49,13
27408,-0,29,1,86,-9,70,2,90,-18,60,-48,50,5,48,-19,63,-49,03
27423,-0,29,1,86,-9,70,2,90,-18,60,-48,50,5,09,-19,48,-48,95
27439,-0,88,1,57,-9,60,8,80,-15,70,-48,00,5,65,-18,91,-48,81
27455,-0,88,1,57,-9,60,8,80,-15,70,-48,00,6,12,-18,43,-48,69
27472,-0,88,2,16,-9,70,8,80,-21,60,-48,50,6,52,-18,91,-48,69
27492,-0,88,2,16,-9,70,8,80,-21,60,-48,50,6,87,-19,31,-48,69
27512,-0,49,2,35,-9,70,4,90,-23,50,-48,50,6,57,-19,94,-48,69
27529,-0,49,2,35,-9,70,4,90,-23,50,-48,50,6,32,-20,47,-48,69
27545,-0,49,2,35,-9,70,4,90,-23,50,-48,50,6,11,-20,93,-48,69
27565,-0,49,2,06,-9,90,4,90,-20,60,-49,50,5,93,-20,88,-48,81
27582,-0,49,2,06,-9,11,4,90,-20,60,-45,55,5,77,-20,84,-48,32
27600,-0,29,2,35,-9,11,2,90,-23,50,-45,55,5,34,-21,24,-47,91
27617,-0,29,2,35,-9,11,2,90,-23,50,-45,55,4,98,-21,58,-47,55
27644,-0,29,2,25,-9,60,2,90,-22,50,-48,00,4,66,-21,71,-47,62
27659,-0,49,2,25,-9,60,4,90,-22,50,-48,00,4,70,-21,83,-47,68
27676,-0,49,2,84,-8,43,4,90,-28,40,-42,15,4,73,-22,82,-46,85
27692,-0,59,2,84,-8,43,5,90,-28,40,-42,15,4,90,-23,65,-46,14
27708,-0,59,3,63,-7,84,5,90,-36,30,-39,20,5,05,-25,55,-45,10
27724,-0,59,3,63,-7,84,5,90,-36,30,-39,20,5,18,-27,16,-44,22
27741,-0,59,3,82,-8,92,5,90,-38,20,-44,60,5,29,-28,82,-44,27
27757,-0,59,3,82,-9,90,5,90,-38,20,-49,50,5,38,-30,23,-45,06
27774,-0,59,4,51,-9,90,5,90,-45,10,-49,50,5,46,-32,46,-45,72
27794,-0,59,5,29,-9,41,5,90,-52,90,-47,05,5,52,-35,52,-45,92
27812,-0,20,5,29,-9,41,2,00,-52,90,-47,05,5,00,-38,13,-46,09
27830,-0,20,5,29,-9,41,2,00,-52,90,-47,05,4,55,-40,35,-46,24
27848,-0,20,5,29,-8,23,2,00,-52,90,-41,15,4,16,-42,23,-45,47
27866,-0,20,6,27,-8,23,2,00,-62,70,-41,15,3,84,-45,30,-44,82
27884,-0,20,6,17,-6,86,2,00,-61,70,-34,30,3,56,-47,76,-43,25
27902,0,00,6,17,-6,86,-0,00,-61,70,-34,30,3,03,-49,85,-41,90
27925,0,00,6,76,-7,35,-0,00,-67,60,-36,75,2,57,-52,51,-41,13
27943,0,00,6,76,-8,13,-0,00,-67,60,-40,65,2,19,-54,78,-41,06
27959,-0,29,7,35,-8,13,2,90,-73,50,-40,65,2,30,-57,58,-41,00
27975,-0,29,7,15,-7,35,2,90,-71,50,-36,75,2,39,-59,67,-40,36
27994,-0,20,7,15,-7,35,2,00,-71,50,-36,75,2,33,-61,45,-39,82
28012,0,20,7,25,-6,76,-2,00,-72,50,-33,80,1,68,-63,10,-38,92
28028,0,20,7,25,-6,76,-2,00,-72,50,-33,80,1,13,-64,51,-38,15
28045,0,20,7,25,-6,76,-2,00,-72,50,-33,80,0,66,-65,71,-37,50
28063,0,20,7,55,-6,17,-2,00,-75,50,-30,85,0,26,-67,18,-36,50
28079,-0,20,7,55,-6,17,2,00,-75,50,-30,85,0,52,-68,43,-35,65
28095,-0,20,7,84,-5,68,2,00,-78,40,-28,40,0,74,-69,92,-34,56
28111,-0,29,7,84,-5,68,2,90,-78,40,-28,40,1,07,-71,20,-33,64
28127,0,00,8,33,-6,08,-0,00,-83,30,-30,40,0,91,-73,01,-33,15
28142,0,00,8,33,-6,08,-0,00,-83,30,-30,40,0,77,-74,55,-32,74
28158,0,00,8,33,-5,88,-0,00,-83,30,-29,40,0,65,-75,87,-32,24
28173,0,00,8,33,-5,88,-0,00,-83,30,-29,40,0,56,-76,98,-31,81
28192,-0,29,8,43,-5,19,2,90,-84,30,-25,95,0,91,-78,08,-30,93
28208,-0,29,8,43,-5,19,2,90,-84,30,-25,95,1,21,-79,01,-30,19
28224,-0,29,8,43,-5,19,2,90,-84,30,-25,95,1,46,-79,81,-29,55
28240,-0,29,8,43,-4,61,2,90,-84,30,-23,05,1,68,-80,48,-28,58
28256,0,00,8,72,-4,61,-0,00,-87,20,-23,05,1,43,-81,49,-27,75
28272,0,00,8,82,-5,29,-0,00,-88,20,-26,45,1,21,-82,49,-27,55
28288,-0,20,8,82,-5,29,2,00,-88,20,-26,45,1,33,-83,35,-27,39
28304,-0,20,9,11,-5,29,2,00,-91,10,-26,45,1,43,-84,51,-27,25
28321,-0,29,9,11,-5,29,2,90,-91,10,-26,45,1,65,-85,50,-27,13
28338,0,00,8,92,-3,43,-0,00,-89,20,-17,15,1,40,-86,06,-25,63
28355,0,00,8,92,-3,43,-0,00,-89,20,-17,15,1,19,-86,53,-24,36
28374,0,00,9,11,-3,23,-0,00,-91,10,-16,15,1,01,-87,21,-23,13
28392,0,00,9,41,-3,82,-0,00,-94,10,-19,10,0,86,-88,25,-22,52
28410,-0,29,9,41,-3,82,2,90,-94,10,-19,10,1,17,-89,12,-22,01
28426,-0,29,9,51,-4,12,2,90,-95,10,-20,60,1,43,-90,02,-21,80
28443,-0,29,9,51,-4,12,2,90,-95,10,-20,60,1,65,-90,78,-21,62
28459,-0,29,9,51,-4,12,2,90,-95,10,-20,60,1,84,-91,43,-21,47
28476,-0,29,9,51,-4,12,2,90,-95,10,-20,60,2,00,-91,98,-21,34
28492,-0,20,9,21,-2,74,2,00,-92,10,-13,70,2,00,-91,98,-20,19
28510,-0,20,9,21,-2,74,2,00,-92,10,-13,70,2,00,-91,98,-19,22
28526,0,00,9,21,-2,74,-0,00,-92,10,-13,70,1,70,-91,98,-18,39
28542,0,00,9,21,-3,04,-0,00,-92,10,-15,20,1,44,-91,98,-17,91
28558,-0,20,9,60,-3,04,2,00,-96,00,-15,20,1,53,-92,58,-17,50
28574,-0,20,9,41,-2,55,2,00,-94,10,-12,75,1,60,-92,81,-16,79
28590,-0,29,9,41,-2,55,2,90,-94,10,-12,75,1,79,-93,00,-16,18
28606,0,20,9,31,-2,06,-2,00,-93,10,-10,30,1,22,-93,00,-15,30
28622,0,20,9,31,-2,06,-2,00,-93,10,-10,30,0,74,-93,00,-14,55
28640,0,20,9,70,-1,76,-2,00,-97,00,-8,80,0,33,-93,60,-13,69
28656,0,20,9,70,-1,76,-2,00,-97,00,-8,80,-0,02,-94,11,-12,96
28672,0,00,10,00,-2,25,-0,00,-100,00,-11,25,-0,02,-95,00,-12,70
28688,0,00,10,00,-2,06,-0,00,-100,00,-10,30,-0,02,-95,75,-12,34
28704,-0,20,9,80,-2,06,2,00,-98,00,-10,30,0,28,-96,08,-12,03
28721,-0,20,9,80,-1,67,2,00,-98,00,-8,35,0,54,-96,37,-11,48
28738,-0,20,9,51,-1,67,2,00,-95,10,-8,35,0,76,-96,18,-11,01
28754,-0,20,9,51,-1,67,2,00,-95,10,-8,35,0,95,-96,02,-10,61
28771,-0,20,9,51,-1,67,2,00,-95,10,-8,35,1,10,-95,88,-10,27
28793,0,20,9,70,-0,98,-2,00,-97,00,-4,90,0,64,-96,05,-9,47
28815,0,20,10,00,-1,27,-2,00,-100,00,-6,35,0,24,-96,64,-9,00
28839,0,00,10,00,-0,88,-0,00,-100,00,-4,40,0,21,-97,15,-8,31
28861,0,20,9,80,-0,88,-2,00,-98,00,-4,40,-0,12,-97,27,-7,72
28877,0,20,9,80,-0,88,-2,00,-98,00,-4,40,-0,41,-97,38,-7,22
28894,0,20,9,80,-0,88,-2,00,-98,00,-4,40,-0,65,-97,48,-6,80
28915,0,29,9,60,-0,20,-2,90,-96,00,-1,00,-0,98,-97,25,-5,93
28934,0,29,10,19,-0,29,-2,90,-101,90,-1,45,-1,27,-97,95,-5,26
28953,0,20,10,19,-0,29,-2,00,-101,90,-1,45,-1,38,-98,54,-4,69
28970,0,49,10,09,-0,20,-4,90,-100,90,-1,00,-1,91,-98,90,-4,13
28988,0,49,10,09,0,00,-4,90,-100,90,0,00,-2,36,-99,20,-3,51
29004,0,29,9,60,0,00,-2,90,-96,00,0,00,-2,44,-98,72,-2,99
29024,0,29,9,60,-0,20,-2,90,-96,00,-1,00,-2,51,-98,31,-2,69
29051,-0,20,9,80,-0,20,2,00,-98,00,-1,00,-1,83,-98,26,-2,44
29074,-0,20,9,80,-0,20,2,00,-98,00,-1,00,-1,26,-98,22,-2,22
29095,0,49,9,70,0,69,-4,90,-97,00,3,45,-1,80,-98,04,-1,37
29113,0,49,9,70,0,49,-4,90,-97,00,2,45,-2,27,-97,88,-0,80
29129,0,00,9,70,0,49,-0,00,-97,00,2,45,-1,93,-97,75,-0,31
29145,0,00,9,70,0,49,-0,00,-97,00,2,45,-1,64,-97,64,0,10
29165,-0,20,9,70,0,49,2,00,-97,00,2,45,-1,09,-97,54,0,46
29182,0,20,9,60,0,78,-2,00,-96,00,3,90,-1,23,-97,31,0,97
29199,0,20,9,60,0,69,-2,00,-96,00,3,45,-1,34,-97,11,1,34
29217,0,29,9,90,0,69,-2,90,-99,00,3,45,-1,58,-97,40,1,66
29233,0,29,9,70,1,08,-2,90,-97,00,5,40,-1,78,-97,34,2,22
29260,0,29,9,70,1,76,-2,90,-97,00,8,80,-1,94,-97,29,3,21
29276,0,20,9,60,1,76,-2,00,-96,00,8,80,-1,94,-97,09,4,05
29292,0,20,9,60,1,76,-2,00,-96,00,8,80,-1,94,-96,93,4,76
29310,0,20,9,60,1,76,-2,00,-96,00,8,80,-1,94,-96,79,5,37
29327,0,20,9,80,1,57,-2,00,-98,00,7,85,-1,94,-96,97,5,74
29343,0,20,9,80,1,57,-2,00,-98,00,7,85,-1,94,-97,13,6,06
29359,0,20,9,80,1,57,-2,00,-98,00,7,85,-1,94,-97,26,6,32
29375,0,20,9,80,1,57,-2,00,-98,00,7,85,-1,94,-97,37,6,55
29391,0,49,9,90,1,47,-4,90,-99,00,7,35,-2,39,-97,61,6,67
29406,0,49,9,90,1,47,-4,90,-99,00,7,35,-2,76,-97,82,6,77
29422,0,20,9,70,1,47,-2,00,-97,00,7,35,-2,65,-97,70,6,86
29438,0,20,9,70,1,76,-2,00,-97,00,8,80,-2,55,-97,59,7,15
29455,0,20,9,60,1,76,-2,00,-96,00,8,80,-2,47,-97,35,7,40
29471,0,20,9,60,1,57,-2,00,-96,00,7,85,-2,40,-97,15,7,47
29488,0,00,9,60,1,57,-0,00,-96,00,7,85,-2,04,-96,98,7,52
29504,0,00,9,51,1,86,-0,00,-95,10,9,30,-1,73,-96,70,7,79
29521,0,29,9,51,1,86,-2,90,-95,10,9,30,-1,91,-96,46,8,02
29538,0,20,9,11,2,65,-2,00,-91,10,13,25,-1,91,-95,65,8,80
29554,0,20,9,11,2,65,-2,00,-91,10,13,25,-1,91,-94,97,9,47
29571,0,20,9,51,2,16,-2,00,-95,10,10,80,-1,91,-94,97,9,67
29588,0,20,9,51,2,25,-2,00,-95,10,11,25,-1,91,-94,97,9,91
29607,0,29,9,60,2,25,-2,90,-96,00,11,25,-2,06,-95,13,10,11
29623,0,29,9,51,2,55,-2,90,-95,10,12,75,-2,18,-95,13,10,50
29640,0,29,9,51,2,55,-2,90,-95,10,12,75,-2,29,-95,13,10,84
29657,0,29,9,11,2,84,-2,90,-91,10,14,20,-2,38,-94,52,11,34
29673,0,29,9,11,2,84,-2,90,-91,10,14,20,-2,46,-94,01,11,77
29690,0,29,9,41,2,65,-2,90,-94,10,13,25,-2,53,-94,01,11,99
29708,0,29,9,41,2,65,-2,90,-94,10,13,25,-2,58,-94,01,12,18
29724,0,29,9,41,2,65,-2,90,-94,10,13,25,-2,63,-94,01,12,34
29740,0,29,9,41,2,45,-2,90,-94,10,12,25,-2,67,-94,01,12,34
29756,0,29,9,41,2,45,-2,90,-94,10,12,25,-2,70,-94,01,12,34
29777,0,29,9,11,3,04,-2,90,-91,10,15,20,-2,70,-93,57,12,77
29797,0,20,9,11,3,04,-2,00,-91,10,15,20,-2,60,-93,20,13,14
29814,0,20,8,92,3,23,-2,00,-89,20,16,15,-2,51,-92,60,13,59
29833,0,20,8,92,3,04,-2,00,-89,20,15,20,-2,43,-92,09,13,83
29851,0,49,9,11,3,04,-4,90,-91,10,15,20,-2,80,-91,94,14,04
29871,0,29,9,02,3,14,-2,90,-90,20,15,70,-2,80,-91,68,14,28
29890,0,29,9,02,3,33,-2,90,-90,20,16,65,-2,80,-91,46,14,64
29908,0,20,9,02,3,33,-2,00,-90,20,16,65,-2,68,-91,27,14,94
29928,0,20,9,21,3,43,-2,00,-92,10,17,15,-2,58,-91,39,15,27
29946,0,20,9,21,3,43,-2,00,-92,10,17,15,-2,49,-91,50,15,55
29962,0,29,9,02,3,33,-2,90,-90,20,16,65,-2,55,-91,31,15,72
29984,0,29,9,02,3,72,-2,90,-90,20,18,60,-2,61,-91,14,16,15
30006,0,49,9,21,3,72,-4,90,-92,10,18,60,-2,95,-91,28,16,52
30026,-0,20,8,33,4,51,2,00,-83,30,22,55,-2,21,-90,09,17,42
30044,-0,20,8,82,3,63,2,00,-88,20,18,15,-1,58,-89,80,17,53
30068,0,20,8,82,3,63,-2,00,-88,20,18,15,-1,64,-89,56,17,62
30087,0,49,9,11,3,63,-4,90,-91,10,18,15,-2,13,-89,79,17,70
30105,0,49,8,92,3,82,-4,90,-89,20,19,10,-2,54,-89,70,17,91
30123,0,29,8,92,3,82,-2,90,-89,20,19,10,-2,60,-89,63,18,09
30140,0,29,8,92,3,82,-2,90,-89,20,19,10,-2,64,-89,56,18,24
30162,0,29,8,92,3,92,-2,90,-89,20,19,60,-2,68,-89,51,18,45
30178,0,29,8,82,3,92,-2,90,-88,20,19,60,-2,71,-89,31,18,62
30195,0,29,8,53,4,70,-2,90,-85,30,23,50,-2,71,-88,71,19,35
30210,0,00,8,53,4,70,-0,00,-85,30,23,50,-2,31,-88,20,19,97
30227,0,49,9,21,3,14,-4,90,-92,10,15,70,-2,70,-88,78,19,33
30245,0,49,9,21,3,14,-4,90,-92,10,15,70,-3,03,-89,28,18,79
30261,0,59,8,82,3,63,-5,90,-88,20,18,15,-3,46,-89,12,18,69
30276,0,59,8,82,3,63,-5,90,-88,20,18,15,-3,82,-88,98,18,61
30292,0,20,8,82,3,92,-2,00,-88,20,19,60,-3,55,-88,86,18,76
30308,0,20,8,82,4,61,-2,00,-88,20,23,05,-3,32,-88,76,19,40
30323,0,49,8,43,4,61,-4,90,-84,30,23,05,-3,56,-88,10,19,95
30349,0,49,8,04,5,78,-4,90,-80,40,28,90,-3,76,-86,94,21,29
30369,0,49,8,04,4,02,-4,90,-80,40,20,10,-3,93,-85,96,21,11
30389,0,00,8,92,4,02,-0,00,-89,20,20,10,-3,34,-86,45,20,96
30405,0,00,8,82,3,43,-0,00,-88,20,17,15,-2,84,-86,71,20,39
30422,0,49,8,82,3,43,-4,90,-88,20,17,15,-3,15,-86,93,19,90
30438,0,49,8,82,3,43,-4,90,-88,20,17,15,-3,41,-87,12,19,49
30455,0,49,8,82,3,43,-4,90,-88,20,17,15,-3,63,-87,28,19,14
30478,-0,20,7,64,6,27,2,00,-76,40,31,35,-2,79,-85,65,20,97
30496,-0,20,8,53,5,19,2,00,-85,30,25,95,-2,07,-85,60,21,72
30520,-0,20,8,53,4,51,2,00,-85,30,22,55,-1,46,-85,55,21,84
30537,0,59,8,72,4,51,-5,90,-87,20,22,55,-2,13,-85,80,21,95
30561,0,59,8,72,4,51,-5,90,-87,20,22,55,-2,69,-86,01,22,04
30581,0,59,8,72,4,61,-5,90,-87,20,23,05,-3,17,-86,19,22,19
30600,0,49,8,62,4,61,-4,90,-86,20,23,05,-3,43,-86,19,22,32
30618,0,29,8,33,4,51,-2,90,-83,30,22,55,-3,35,-85,76,22,35
30638,0,29,8,33,4,51,-2,90,-83,30,22,55,-3,28,-85,39,22,35
30654,0,29,8,33,4,51,-2,90,-83,30,22,55,-3,23,-85,07,22,35
30671,0,29,8,23,5,10,-2,90,-82,30,25,50,-3,18,-84,66,22,83
30690,0,20,8,23,5,10,-2,00,-82,30,25,50,-3,00,-84,30,23,23
30712,0,20,8,23,5,10,-2,00,-82,30,25,50,-2,85,-84,00,23,57
30730,0,20,8,23,5,10,-2,00,-82,30,25,50,-2,72,-83,75,23,86
30748,0,29,8,23,5,10,-2,90,-82,30,25,50,-2,72,-83,53,24,10
30779,0,29,8,23,5,10,-2,90,-82,30,25,50,-2,72,-83,35,24,31
30809,0,29,8,04,5,29,-2,90,-80,40,26,45,-2,72,-82,90,24,63
30841,0,29,8,13,5,19,-2,90,-81,30,25,95,-2,72,-82,66,24,83
30867,0,49,8,13,5,19,-4,90,-81,30,25,95,-3,05,-82,46,25,00
30899,0,20,8,13,5,39,-2,00,-81,30,26,95,-2,89,-82,29,25,29
30931,0,20,7,74,5,49,-2,00,-77,40,27,45,-2,76,-81,55,25,62
30958,0,59,7,45,6,27,-5,90,-74,50,31,35,-3,23,-80,49,26,48
30981,0,59,7,45,6,27,-5,90,-74,50,31,35,-3,63,-79,60,27,21
31012,0,59,7,84,5,59,-5,90,-78,40,27,95,-3,97,-79,42,27,32
31040,0,29,7,64,5,59,-2,90,-76,40,27,95,-3,81,-78,96,27,41
31066,0,49,7,64,5,59,-4,90,-76,40,27,95,-3,97,-78,58,27,49
31088,0,49,7,64,5,88,-4,90,-76,40,29,40,-4,11,-78,25,27,78
31109,0,49,7,55,5,88,-4,90,-75,50,29,40,-4,23,-77,84,28,02
31126,0,49,7,64,5,78,-4,90,-76,40,28,90,-4,33,-77,62,28,15
31150,0,20,7,64,6,17,-2,00,-76,40,30,85,-3,98,-77,44,28,56
31167,0,59,7,35,6,17,-5,90,-73,50,30,85,-4,27,-76,85,28,90
31197,0,59,7,35,6,37,-5,90,-73,50,31,85,-4,51,-76,35,29,34
31214,0,49,7,45,5,49,-4,90,-74,50,27,45,-4,57,-76,07,29,06
31235,0,49,7,45,5,49,-4,90,-74,50,27,45,-4,62,-75,83,28,82
31254,0,78,7,25,6,08,-7,80,-72,50,30,40,-5,10,-75,33,29,06
31273,0,78,7,06,6,76,-7,80,-70,60,33,80,-5,50,-74,62,29,77
31289,0,49,7,06,6,76,-4,90,-70,60,33,80,-5,41,-74,02,30,37
31306,0,49,7,25,6,08,-4,90,-72,50,30,40,-5,34,-73,79,30,37
31327,0,59,7,25,6,08,-5,90,-72,50,30,40,-5,42,-73,60,30,37
31343,0,78,7,06,6,27,-7,80,-70,60,31,35,-5,78,-73,15,30,52
31358,0,78,7,06,6,66,-7,80,-70,60,33,30,-6,08,-72,77,30,94
31374,0,59,6,96,6,66,-5,90,-69,60,33,30,-6,08,-72,29,31,29
31390,0,59,6,96,6,66,-5,90,-69,60,33,30,-6,08,-71,89,31,59
31406,0,59,6,96,6,66,-5,90,-69,60,33,30,-6,08,-71,54,31,85
31423,0,59,7,06,6,47,-5,90,-70,60,32,35,-6,08,-71,40,31,92
31439,0,49,7,06,6,47,-4,90,-70,60,32,35,-5,90,-71,28,31,99
31455,0,49,6,76,6,66,-4,90,-67,60,33,30,-5,75,-70,73,32,18
31471,0,78,6,76,6,66,-7,80,-67,60,33,30,-6,06,-70,26,32,35
31490,0,78,6,66,6,96,-7,80,-66,60,34,80,-6,32,-69,71,32,72
31506,0,78,6,66,6,96,-7,80,-66,60,34,80,-6,54,-69,24,33,03
31522,0,59,6,86,6,76,-5,90,-68,60,33,80,-6,45,-69,15,33,15
31540,0,59,6,86,6,76,-5,90,-68,60,33,80,-6,36,-69,07,33,24
31557,0,59,6,86,6,76,-5,90,-68,60,33,80,-6,29,-69,00,33,33
31573,0,59,6,57,7,35,-5,90,-65,70,36,75,-6,24,-68,50,33,84
31590,0,78,6,57,7,35,-7,80,-65,70,36,75,-6,47,-68,08,34,28
31607,0,78,6,86,6,76,-7,80,-68,60,33,80,-6,67,-68,16,34,21
31626,0,59,6,86,6,76,-5,90,-68,60,33,80,-6,55,-68,23,34,14
31642,0,88,6,47,6,66,-8,80,-64,70,33,30,-6,89,-67,70,34,02
31658,0,88,6,47,6,76,-8,80,-64,70,33,80,-7,18,-67,25,33,99
31674,0,78,6,66,6,76,-7,80,-66,60,33,80,-7,27,-67,15,33,99
31690,0,78,6,66,6,76,-7,80,-66,60,33,80,-7,35,-67,07,33,99
31706,0,59,6,66,6,76,-5,90,-66,60,33,80,-7,13,-67,00,33,99
31722,0,59,6,66,7,55,-5,90,-66,60,37,75,-6,95,-66,94,34,55
31740,0,88,6,17,7,55,-8,80,-61,70,37,75,-7,23,-66,15,35,03
31756,0,88,6,66,6,96,-8,80,-66,60,34,80,-7,46,-66,22,35,00
31772,0,78,6,66,6,96,-7,80,-66,60,34,80,-7,51,-66,28,35,00
31793,0,78,6,76,6,66,-7,80,-67,60,33,30,-7,56,-66,47,34,74
31812,0,78,6,76,6,66,-7,80,-67,60,33,30,-7,59,-66,64,34,53
31841,0,78,6,76,7,15,-7,80,-67,60,35,75,-7,62,-66,79,34,71
31865,0,88,6,27,7,15,-8,80,-62,70,35,75,-7,80,-66,17,34,87
31890,0,78,6,27,6,86,-7,80,-62,70,34,30,-7,80,-65,65,34,78
31912,0,78,6,17,7,25,-7,80,-61,70,36,25,-7,80,-65,06,35,00
31931,0,78,6,17,7,55,-7,80,-61,70,37,75,-7,80,-64,56,35,41
31947,0,88,6,17,7,55,-8,80,-61,70,37,75,-7,95,-64,13,35,76
31963,0,88,6,66,6,76,-8,80,-66,60,33,80,-8,08,-64,50,35,47
31979,0,78,6,66,6,76,-7,80,-66,60,33,80,-8,04,-64,81,35,22
32001,0,78,6,66,6,76,-7,80,-66,60,33,80,-8,00,-65,08,35,01
32017,0,78,6,66,6,76,-7,80,-66,60,33,80,-7,97,-65,31,34,83
32039,0,88,6,08,7,35,-8,80,-60,80,36,75,-8,09,-64,63,35,11
32059,1,08,5,88,7,55,-10,80,-58,80,37,75,-8,50,-63,76,35,51
32077,1,08,5,88,7,45,-10,80,-58,80,37,25,-8,85,-63,01,35,77
32095,0,88,5,98,7,45,-8,80,-59,80,37,25,-8,85,-62,53,35,99
32112,0,88,5,98,7,06,-8,80,-59,80,35,30,-8,85,-62,12,35,89
32128,0,78,6,17,7,06,-7,80,-61,70,35,30,-8,69,-62,06,35,80
32144,0,78,5,88,7,35,-7,80,-58,80,36,75,-8,56,-61,57,35,94
32160,0,88,5,88,7,35,-8,80,-58,80,36,75,-8,59,-61,15,36,06
32175,0,88,5,68,8,33,-8,80,-56,80,41,65,-8,62,-60,50,36,90
32191,0,78,5,68,8,33,-7,80,-56,80,41,65,-8,50,-59,95,37,61
32207,0,78,5,88,7,35,-7,80,-58,80,36,75,-8,39,-59,77,37,48
32223,0,78,5,88,7,35,-7,80,-58,80,36,75,-8,31,-59,63,37,37
32239,0,78,5,88,7,35,-7,80,-58,80,36,75,-8,23,-59,50,37,28
32255,0,78,5,88,7,35,-7,80,-58,80,36,75,-8,17,-59,40,37,20
32271,0,88,5,68,7,64,-8,80,-56,80,38,20,-8,26,-59,01,37,35
32287,0,88,5,68,7,64,-8,80,-56,80,38,20,-8,34,-58,68,37,48
32304,0,88,5,39,8,13,-8,80,-53,90,40,65,-8,41,-57,96,37,95
32321,0,88,5,39,7,64,-8,80,-53,90,38,20,-8,47,-57,35,37,99
32339,1,08,5,29,7,64,-10,80,-52,90,38,20,-8,82,-56,68,38,02
32355,1,08,5,19,7,74,-10,80,-51,90,38,70,-9,12,-55,97,38,12
32375,0,78,5,19,7,74,-7,80,-51,90,38,70,-8,92,-55,36,38,21
32397,1,08,5,19,7,74,-10,80,-51,90,38,70,-9,20,-54,84,38,28
32415,1,08,4,90,7,94,-10,80,-49,00,39,70,-9,44,-53,96,38,50
32432,1,08,4,90,7,94,-10,80,-49,00,39,70,-9,64,-53,22,38,68
32448,1,08,4,80,8,23,-10,80,-48,00,41,15,-9,82,-52,44,39,05
32463,1,08,4,80,8,23,-10,80,-48,00,41,15,-9,97,-51,77,39,36
32479,0,88,4,31,8,04,-8,80,-43,10,40,20,-9,79,-50,47,39,49
32494,0,88,4,31,8,04,-8,80,-43,10,40,20,-9,64,-49,36,39,60
32509,1,27,4,12,9,02,-12,70,-41,20,45,10,-10,10,-48,14,40,42
32524,1,27,4,12,9,02,-12,70,-41,20,45,10,-10,49,-47,10,41,12
32541,1,27,4,41,8,92,-12,70,-44,10,44,60,-10,82,-46,65,41,64
32558,1,27,4,41,8,82,-12,70,-44,10,44,10,-11,10,-46,27,42,01
32574,1,37,4,02,8,82,-13,70,-40,20,44,10,-11,49,-45,36,42,33
32590,1,37,4,02,9,21,-13,70,-40,20,46,05,-11,82,-44,58,42,88
32606,1,27,4,02,9,21,-12,70,-40,20,46,05,-11,96,-43,93,43,36
32622,1,27,4,21,7,94,-12,70,-42,10,39,70,-12,07,-43,65,42,81
32638,0,49,4,21,7,94,-4,90,-42,10,39,70,-10,99,-43,42,42,34
32654,0,49,4,21,7,94,-4,90,-42,10,39,70,-10,08,-43,22,41,95
32671,0,49,4,21,7,94,-4,90,-42,10,39,70,-9,30,-43,05,41,61
32687,1,37,2,84,9,02,-13,70,-28,40,45,10,-9,96,-40,86,42,13
32704,1,37,2,84,9,02,-13,70,-28,40,45,10,-10,52,-38,99,42,58
32721,1,37,2,84,9,02,-13,70,-28,40,45,10,-11,00,-37,40,42,96
32738,1,37,2,84,7,55,-13,70,-28,40,37,75,-11,40,-36,05,42,18
32754,0,59,2,35,7,55,-5,90,-23,50,37,75,-10,58,-34,17,41,51
32771,0,59,2,35,8,53,-5,90,-23,50,42,65,-9,88,-32,57,41,68
32789,1,86,2,74,8,53,-18,60,-27,40,42,65,-11,19,-31,79,41,83
32810,2,45,3,23,8,62,-24,50,-32,30,43,10,-13,18,-31,87,42,02
32828,2,45,3,23,10,49,-24,50,-32,30,52,45,-14,88,-31,93,43,58
32844,2,45,2,65,10,49,-24,50,-26,50,52,45,-16,32,-31,12,44,91
32860,2,45,2,65,9,41,-24,50,-26,50,47,05,-17,55,-30,43,45,23
32879,1,67,2,55,9,41,-16,70,-25,50,47,05,-17,42,-29,69,45,51
32897,1,67,2,25,10,00,-16,70,-22,50,50,00,-17,31,-28,61,46,18
32914,1,96,2,25,10,00,-19,60,-22,50,50,00,-17,66,-27,69,46,75
32932,1,57,1,67,9,51,-15,70,-16,70,47,55,-17,36,-26,04,46,87
32948,1,57,1,67,8,53,-15,70,-16,70,42,65,-17,11,-24,64,46,24
32963,1,57,1,76,8,53,-15,70,-17,60,42,65,-16,90,-23,59,45,70
32978,1,57,1,76,8,62,-15,70,-17,60,43,10,-16,72,-22,69,45,31
32994,1,67,1,37,8,62,-16,70,-13,70,43,10,-16,72,-21,34,44,98
33010,1,67,1,37,8,33,-16,70,-13,70,41,65,-16,72,-20,19,44,48
33027,1,08,1,08,8,33,-10,80,-10,80,41,65,-15,83,-18,78,44,06
33043,1,08,1,18,9,60,-10,80,-11,80,48,00,-15,08,-17,74,44,65
33059,1,57,1,18,9,60,-15,70,-11,80,48,00,-15,17,-16,85,45,15
33075,1,57,1,18,9,60,-15,70,-11,80,48,00,-15,25,-16,09,45,58
33091,1,57,1,18,9,60,-15,70,-11,80,48,00,-15,32,-15,45,45,94
33108,1,86,1,27,9,11,-18,60,-12,70,45,55,-15,81,-15,03,45,88
33123,1,86,1,27,9,11,-18,60,-12,70,45,55,-16,23,-14,68,45,83
33140,2,16,1,37,8,62,-21,60,-13,70,43,10,-17,03,-14,54,45,42
33156,2,16,1,37,8,62,-21,60,-13,70,43,10,-17,72,-14,41,45,07
33172,2,16,1,18,9,41,-21,60,-11,80,47,05,-18,30,-14,02,45,37
33188,2,16,1,18,9,11,-21,60,-11,80,45,55,-18,80,-13,69,45,37
33204,1,67,0,98,9,11,-16,70,-9,80,45,55,-18,48,-13,10,45,37
33220,1,67,0,98,9,90,-16,70,-9,80,49,50,-18,21,-12,61,45,99
33238,1,67,0,78,9,90,-16,70,-7,80,49,50,-17,99,-11,89,46,52
33258,1,37,0,49,10,68,-13,70,-4,90,53,40,-17,34,-10,84,47,55
33274,1,37,0,49,10,68,-13,70,-4,90,53,40,-16,80,-9,95,48,43
33290,0,49,0,10,8,72,-4,90,-1,00,43,60,-15,01,-8,61,47,70
33307,0,49,0,10,8,72,-4,90,-1,00,43,60,-13,50,-7,46,47,09
33325,1,67,0,59,7,74,-16,70,-5,90,38,70,-13,98,-7,23,45,83
33342,1,67,0,39,8,43,-16,70,-3,90,42,15,-14,39,-6,73,45,28
33358,1,96,0,39,8,43,-19,60,-3,90,42,15,-15,17,-6,31,44,81
33374,1,96,0,29,12,15,-19,60,-2,90,60,75,-15,83,-5,80,47,20
33390,2,45,0,29,12,15,-24,50,-2,90,60,75,-17,13,-5,36,49,23
33406,1,27,0,39,7,74,-12,70,-3,90,38,70,-16,47,-5,14,47,65
33422,1,27,0,39,7,74,-12,70,-3,90,38,70,-15,90,-4,96,46,31
33439,1,08,0,10,6,86,-10,80,-1,00,34,30,-15,14,-4,36,44,51
33457,1,08,0,10,6,86,-10,80,-1,00,34,30,-14,49,-3,86,42,98
33474,1,96,-0,69,10,09,-19,60,6,90,50,45,-15,25,-2,24,44,10
33489,1,96,-0,69,10,09,-19,60,6,90,50,45,-15,91,-0,87,45,05
33505,1,96,-0,69,10,09,-19,60,6,90,50,45,-16,46,0,29,45,86
33522,1,96,-0,59,9,11,-19,60,5,90,45,55,-16,93,1,13,45,81
33538,1,37,-0,59,9,11,-13,70,5,90,45,55,-16,45,1,85,45,77
33554,1,37,-0,10,9,02,-13,70,1,00,45,10,-16,03,1,72,45,67
33571,1,86,-0,10,9,02,-18,60,1,00,45,10,-16,42,1,61,45,59
33587,1,57,-1,18,9,31,-15,70,11,80,46,55,-16,31,3,14,45,73
33604,1,57,-1,18,9,31,-15,70,11,80,46,55,-16,22,4,44,45,85
33620,1,27,-1,18,9,51,-12,70,11,80,47,55,-15,69,5,54,46,11
33637,1,27,-1,18,9,51,-12,70,11,80,47,55,-15,24,6,48,46,32
33654,1,37,-0,98,8,62,-13,70,9,80,43,10,-15,01,6,98,45,84
33674,1,37,-2,06,9,90,-13,70,20,60,49,50,-14,81,9,02,46,39
33692,1,27,-2,06,9,90,-12,70,20,60,49,50,-14,50,10,76,46,86
33713,1,37,-1,86,9,90,-13,70,18,60,49,50,-14,38,11,94,47,25
33730,1,37,-1,86,8,43,-13,70,18,60,42,15,-14,28,12,94,46,49
33748,1,67,-1,27,8,43,-16,70,12,70,42,15,-14,64,12,90,45,84
33766,1,67,-1,57,8,82,-16,70,15,70,44,10,-14,95,13,32,45,58
33792,1,67,-1,57,9,41,-16,70,15,70,47,05,-15,21,13,68,45,80
33820,1,96,-2,06,9,70,-19,60,20,60,48,50,-15,87,14,72,46,20
33843,1,86,-2,16,9,70,-18,60,21,60,48,50,-16,28,15,75,46,55
33864,1,57,-1,76,7,84,-15,70,17,60,39,20,-16,19,16,03,45,45
33881,1,57,-1,76,8,72,-15,70,17,60,43,60,-16,12,16,26,45,17
33897,1,57,-2,25,8,72,-15,70,22,50,43,60,-16,06,17,20,44,93
33914,1,57,-2,25,8,72,-15,70,22,50,43,60,-16,00,17,99,44,73
33930,1,57,-2,25,8,72,-15,70,22,50,43,60,-15,96,18,67,44,56
33950,1,96,-2,35,8,53,-19,60,23,50,42,65,-16,50,19,39,44,28
33978,1,96,-2,35,8,82,-19,60,23,50,44,10,-16,97,20,01,44,28
33995,1,67,-2,74,8,82,-16,70,27,40,44,10,-16,93,21,12,44,28
34011,1,57,-2,94,8,62,-15,70,29,40,43,10,-16,74,22,36,44,10
34027,1,57,-2,94,9,21,-15,70,29,40,46,05,-16,59,23,42,44,39
34045,1,96,-3,14,9,21,-19,60,31,40,46,05,-17,04,24,61,44,64
34062,1,96,-3,04,8,72,-19,60,30,40,43,60,-17,42,25,48,44,48
34077,1,57,-3,04,8,72,-15,70,30,40,43,60,-17,16,26,22,44,35
34092,1,57,-3,04,8,62,-15,70,30,40,43,10,-16,94,26,85,44,16
34108,1,67,-3,23,8,62,-16,70,32,30,43,10,-16,91,27,66,44,00
34124,1,67,-3,53,8,72,-16,70,35,30,43,60,-16,88,28,81,43,94
34139,1,57,-3,53,8,72,-15,70,35,30,43,60,-16,70,29,78,43,89
34155,1,57,-3,33,8,53,-15,70,33,30,42,65,-16,55,30,31,43,71
34171,1,67,-3,33,8,53,-16,70,33,30,42,65,-16,55,30,76,43,55
34187,1,57,-3,53,8,53,-15,70,35,30,42,65,-16,42,31,44,43,41
34204,1,57,-3,53,8,53,-15,70,35,30,42,65,-16,31,32,02,43,30
34220,1,96,-3,33,8,72,-19,60,33,30,43,60,-16,81,32,21,43,34
34237,1,96,-3,33,8,72,-19,60,33,30,43,60,-17,23,32,37,43,38
34256,2,16,-3,53,8,53,-21,60,35,30,42,65,-17,88,32,81,43,27
34272,2,16,-3,53,8,33,-21,60,35,30,41,65,-18,44,33,19,43,03
34288,1,86,-3,72,8,33,-18,60,37,20,41,65,-18,44,33,79,42,82
34304,1,86,-3,72,8,33,-18,60,37,20,41,65,-18,44,34,30,42,65
34320,1,86,-3,72,8,33,-18,60,37,20,41,65,-18,44,34,74,42,50
34337,1,96,-4,21,8,33,-19,60,42,10,41,65,-18,61,35,84,42,37
34354,1,96,-4,21,8,33,-19,60,42,10,41,65,-18,76,36,78,42,26
34370,1,86,-4,21,8,92,-18,60,42,10,44,60,-18,76,37,58,42,61
34388,1,86,-4,21,8,53,-18,60,42,10,42,65,-18,76,38,26,42,61
34404,1,57,-4,31,8,53,-15,70,43,10,42,65,-18,30,38,98,42,61
34420,1,57,-4,31,8,13,-15,70,43,10,40,65,-17,91,39,60,42,32
34437,1,57,-4,41,8,13,-15,70,44,10,40,65,-17,58,40,27,42,07
34454,1,57,-5,00,8,33,-15,70,50,00,41,65,-17,30,41,73,42,01
34470,1,37,-5,00,8,33,-13,70,50,00,41,65,-16,76,42,97,41,95
34487,1,37,-5,10,8,23,-13,70,51,00,41,15,-16,30,44,18,41,83
34504,1,37,-5,10,8,23,-13,70,51,00,41,15,-15,91,45,20,41,73
34521,1,27,-5,88,8,43,-12,70,58,80,42,15,-15,43,47,24,41,79
34544,1,27,-5,88,8,43,-12,70,58,80,42,15,-15,02,48,97,41,85
34564,1,27,-5,88,8,43,-12,70,58,80,42,15,-14,67,50,45,41,89
34583,1,57,-5,88,7,15,-15,70,58,80,35,75,-14,83,51,70,40,97
34602,1,57,-6,08,7,74,-15,70,60,80,38,70,-14,96,53,07,40,63
34618,1,86,-6,08,7,74,-18,60,60,80,38,70,-15,50,54,23,40,34
34634,1,86,-5,98,7,35,-18,60,59,80,36,75,-15,97,55,06,39,80
34652,1,96,-5,98,7,35,-19,60,59,80,36,75,-16,51,55,77,39,34
34670,1,86,-5,98,5,68,-18,60,59,80,28,40,-16,83,56,38,37,70
34688,1,86,-5,98,5,19,-18,60,59,80,25,95,-17,09,56,89,35,94
34708,1,67,-6,37,5,19,-16,70,63,70,25,95,-17,03,57,91,34,44
34725,1,67,-7,35,6,37,-16,70,73,50,31,85,-16,98,60,25,34,05
34742,1,67,-7,35,6,37,-16,70,73,50,31,85,-16,94,62,24,33,72
34758,1,67,-7,35,6,37,-16,70,73,50,31,85,-16,90,63,93,33,44
34775,1,67,-7,35,6,37,-16,70,73,50,31,85,-16,87,65,36,33,20
34797,0,88,-7,64,5,10,-8,80,76,40,25,50,-15,66,67,02,32,05
34819,0,88,-7,94,4,61,-8,80,79,40,23,05,-14,63,68,88,30,70
34843,0,78,-7,94,5,78,-7,80,79,40,28,90,-13,61,70,45,30,43
34866,1,27,-8,23,5,78,-12,70,82,30,28,90,-13,47,72,23,30,20
34895,0,49,-8,53,4,90,-4,90,85,30,24,50,-12,19,74,19,29,34
34915,0,29,-8,72,4,12,-2,90,87,20,20,60,-10,79,76,14,28,03
34939,0,29,-8,53,2,25,-2,90,85,30,11,25,-9,61,77,52,25,52
34959,0,88,-8,53,2,84,-8,80,85,30,14,20,-9,49,78,68,23,82
34982,0,29,-9,41,2,84,-2,90,94,10,14,20,-8,50,81,00,22,38
35008,0,29,-9,31,2,94,-2,90,93,10,14,70,-7,66,82,81,21,22
35037,0,29,-9,31,2,94,-2,90,93,10,14,70,-6,95,84,36,20,25
35065,0,78,-9,31,2,45,-7,80,93,10,12,25,-7,07,85,67,19,05
35087,0,78,-8,92,1,57,-7,80,89,20,7,85,-7,18,86,20,17,37
35105,0,49,-8,92,1,57,-4,90,89,20,7,85,-6,84,86,65,15,94
35126,0,20,-9,60,0,59,-2,00,96,00,2,95,-6,11,88,05,13,99
35146,0,20,-9,80,1,37,-2,00,98,00,6,85,-5,50,89,54,12,92
35163,0,78,-9,80,1,37,-7,80,98,00,6,85,-5,84,90,81,12,01
35182,0,78,-9,80,1,37,-7,80,98,00,6,85,-6,14,91,89,11,24
35199,0,78,-9,80,0,59,-7,80,98,00,2,95,-6,39,92,81,9,99
35216,0,00,-9,90,0,59,-0,00,99,00,2,95,-5,43,93,74,8,94
35236,0,00,-10,09,-0,69,-0,00,100,90,-3,45,-4,61,94,81,7,08
35260,0,00,-10,09,-0,98,-0,00,100,90,-4,90,-3,92,95,72,5,28
35281,-0,20,-10,09,-0,98,2,00,100,90,-4,90,-3,03,96,50,3,75
35300,0,78,-9,90,0,59,-7,80,99,00,2,95,-3,75,96,87,3,63
35321,0,78,-9,90,-0,78,-7,80,99,00,-3,90,-4,36,97,19,2,50
35345,-0,20,-10,29,-0,78,2,00,102,90,-3,90,-3,40,98,05,1,54
35367,-0,49,-10,00,-1,76,4,90,100,00,-8,80,-2,16,98,34,-0,01
35385,-0,49,-8,62,-2,45,4,90,86,20,-12,25,-1,10,96,52,-1,84
35408,0,59,-8,62,-3,82,-5,90,86,20,-19,10,-1,82,94,97,-4,43
35431,-0,20,-8,62,-3,82,2,00,86,20,-19,10,-1,25,93,66,-6,63
35457,1,57,-8,82,-4,12,-15,70,88,20,-20,60,-3,41,92,84,-8,73
35483,1,57,-8,04,-5,10,-15,70,80,40,-25,50,-5,26,90,97,-11,24
35511,1,86,-8,04,-3,04,-18,60,80,40,-15,20,-7,26,89,39,-11,84
35530,1,27,-8,33,-3,63,-12,70,83,30,-18,15,-8,07,88,47,-12,78
35551,1,27,-7,45,-3,63,-12,70,74,50,-18,15,-8,77,86,38,-13,59
35569,1,67,-6,27,-8,62,-16,70,62,70,-43,10,-9,96,82,83,-18,02
35589,1,67,-6,27,-8,62,-16,70,62,70,-43,10,-10,97,79,81,-21,78
35606,1,67,-6,27,-8,62,-16,70,62,70,-43,10,-11,83,77,24,-24,98
35622,1,67,-5,49,-5,39,-16,70,54,90,-26,95,-12,56,73,89,-25,27
35638,1,08,-5,49,-5,39,-10,80,54,90,-26,95,-12,30,71,04,-25,52
35654,1,08,-4,41,-6,47,-10,80,44,10,-32,35,-12,07,67,00,-26,55
35670,-0,29,-4,41,-6,47,2,90,44,10,-32,35,-9,83,63,57,-27,42
35688,-1,67,-3,33,-11,86,16,70,33,30,-59,30,-5,85,59,03,-32,20
35712,-1,67,-3,33,-13,03,16,70,33,30,-65,15,-2,46,55,17,-37,14
35731,-0,78,-2,16,-13,03,7,80,21,60,-65,15,-0,93,50,13,-41,34
35751,0,49,-2,55,-9,41,-4,90,25,50,-47,05,-1,52,46,44,-42,20
35770,0,49,-2,55,-12,54,-4,90,25,50,-62,70,-2,03,43,30,-45,27
35799,-0,59,-2,94,-12,94,5,90,29,40,-64,70,-0,84,41,21,-48,19
35820,-0,29,-2,45,-12,94,2,90,24,50,-64,70,-0,28,38,71,-50,67
35851,-1,37,-1,18,-9,90,13,70,11,80,-49,50,1,82,34,67,-50,49
35872,-2,65,-1,96,-10,09,26,50,19,60,-50,45,5,52,32,41,-50,49
35895,-2,65,-2,16,-10,49,26,50,21,60,-52,45,8,67,30,79,-50,78
35918,-1,86,-2,16,-9,80,18,60,21,60,-49,00,10,16,29,41,-50,52
35938,-0,59,-2,25,-9,80,5,90,22,50,-49,00,9,52,28,37,-50,29
35969,-0,59,-2,94,-7,74,5,90,29,40,-38,70,8,98,28,53,-48,55
35991,-0,59,-3,33,-8,82,5,90,33,30,-44,10,8,51,29,24,-47,88
36011,-0,88,-3,33,-8,82,8,80,33,30,-44,10,8,56,29,85,-47,32
36028,-0,88,-3,33,-8,82,8,80,33,30,-44,10,8,59,30,37,-46,83
36046,-0,88,-1,57,-8,23,8,80,15,70,-41,15,8,62,28,17,-45,98
36063,0,49,-1,57,-8,23,-4,90,15,70,-41,15,6,60,26,30,-45,26
36081,-2,35,-1,37,-10,58,23,50,13,70,-52,90,9,13,24,41,-46,40
36101,-2,35,-1,37,-14,50,23,50,13,70,-72,50,11,29,22,80,-50,32
36122,-2,65,0,29,-14,50,26,50,-2,90,-72,50,13,57,18,95,-53,64
36144,-1,27,-0,49,-10,88,12,70,4,90,-54,40,13,44,16,84,-53,76
36168,-1,27,-0,20,-11,47,12,70,2,00,-57,35,13,33,14,61,-54,30
36193,-2,35,-0,20,-12,64,23,50,2,00,-63,20,14,85,12,72,-55,63
36219,-2,35,0,29,-9,41,23,50,-2,90,-47,05,16,15,10,38,-54,34
36239,-1,27,-0,98,-9,41,12,70,9,80,-47,05,15,63,10,29,-53,25
36256,-1,27,-1,67,-9,51,12,70,16,70,-47,55,15,19,11,25,-52,40
36274,-0,59,-1,67,-9,51,5,90,16,70,-47,55,13,80,12,07,-51,67
36293,-0,59,-1,67,-9,51,5,90,16,70,-47,55,12,61,12,76,-51,05
36309,-0,59,-1,67,-9,60,5,90,16,70,-48,00,11,61,13,35,-50,59
36325,-1,37,-1,18,-9,60,13,70,11,80,-48,00,11,92,13,12,-50,20
36346,-1,37,-0,98,-10,09,13,70,9,80,-50,45,12,19,12,62,-50,24
36363,-1,67,-0,98,-10,09,16,70,9,80,-50,45,12,86,12,20,-50,27
36379,-1,57,-1,27,-10,49,15,70,12,70,-52,45,13,29,12,27,-50,60
36398,-1,57,-1,27,-9,51,15,70,12,70,-47,55,13,65,12,34,-50,14
36416,-0,59,-0,69,-9,51,5,90,6,90,-47,55,12,49,11,52,-49,75
36435,-0,59,-0,69,-9,51,5,90,6,90,-47,55,11,50,10,83,-49,42
36456,-0,59,-0,69,-9,51,5,90,6,90,-47,55,10,66,10,24,-49,14
36473,-3,43,-1,08,-7,55,34,30,10,80,-37,75,14,21,10,32,-47,43
36489,-3,43,-1,08,-5,39,34,30,10,80,-26,95,17,22,10,40,-44,36
36505,-1,96,1,27,-5,39,19,60,-12,70,-26,95,17,58,6,93,-41,75
36521,-1,96,1,27,-8,53,19,60,-12,70,-42,65,17,88,3,99,-41,88
36549,-0,29,4,51,-8,53,2,90,-45,10,-42,65,15,63,-3,38,-42,00
36568,-0,49,5,98,-5,88,4,90,-59,80,-29,40,14,02,-11,84,-40,11
36586,-0,49,7,25,-1,96,4,90,-72,50,-9,80,12,66,-20,94,-35,56
36602,0,00,7,25,-1,96,-0,00,-72,50,-9,80,10,76,-28,67,-31,70
36620,0,59,12,05,-6,17,-5,90,-120,50,-30,85,8,26,-42,45,-31,57
36637,0,59,12,05,-6,17,-5,90,-120,50,-30,85,6,13,-54,16,-31,46
36653,-0,49,11,76,-4,61,4,90,-117,60,-23,05,5,95,-63,67,-30,20
36671,-0,49,11,76,-8,23,4,90,-117,60,-41,15,5,79,-71,76,-31,84
36687,-0,20,11,76,-8,23,2,00,-117,60,-41,15,5,22,-78,64,-33,24
36703,-0,20,11,27,-8,43,2,00,-112,70,-42,15,4,74,-83,75,-34,58
36721,-1,57,11,27,-8,43,15,70,-112,70,-42,15,6,38,-88,09,-35,71
36737,-2,45,11,07,-5,98,24,50,-110,70,-29,90,9,10,-91,48,-34,84
36753,-2,45,11,07,-5,98,24,50,-110,70,-29,90,11,41,-94,36,-34,10
36770,-0,78,11,96,-2,65,7,80,-119,60,-13,25,10,87,-98,15,-30,97
36794,-0,78,11,96,-5,19,7,80,-119,60,-25,95,10,41,-101,37,-30,22
36812,-0,88,12,25,-5,19,8,80,-122,50,-25,95,10,17,-104,54,-29,58
36834,-1,67,11,76,-5,88,16,70,-117,60,-29,40,11,15,-106,50,-29,58
36855,-1,67,11,76,-5,88,16,70,-117,60,-29,40,11,98,-108,16,-29,58
36879,-1,67,11,76,-5,39,16,70,-117,60,-26,95,12,69,-109,58,-29,18
36899,-2,45,10,39,-5,39,24,50,-103,90,-26,95,14,46,-108,73,-28,85
36920,-2,45,10,29,-6,66,24,50,-102,90,-33,30,15,97,-107,85,-29,52
36937,-2,65,10,29,-8,13,26,50,-102,90,-40,65,17,55,-107,11,-31,19
36953,-0,88,11,27,-8,13,8,80,-112,70,-40,65,16,23,-107,95,-32,61
36972,-0,88,6,66,-5,68,8,80,-66,60,-28,40,15,12,-101,75,-31,98
36988,-0,88,6,66,-5,68,8,80,-66,60,-28,40,14,17,-96,47,-31,44
37005,-0,88,3,92,-3,92,8,80,-39,20,-19,60,13,37,-87,88,-29,66
37023,-2,65,3,92,-3,92,26,50,-39,20,-19,60,15,34,-80,58,-28,15
37044,-2,74,0,00,-5,49,27,40,-0,00,-27,45,17,15,-68,49,-28,05
37060,-2,74,0,00,-6,57,27,40,-0,00,-32,85,18,68,-58,22,-28,77
37077,-3,43,-0,88,-6,57,34,30,8,80,-32,85,21,03,-48,17,-29,38
37096,-3,43,-2,65,-3,04,34,30,26,50,-15,20,23,02,-36,97,-27,25
37112,-4,31,-2,65,-3,04,43,10,26,50,-15,20,26,03,-27,45,-25,45
37128,-7,06,-2,45,-5,29,70,60,24,50,-26,45,32,72,-19,65,-25,60
37144,-7,06,-2,45,-5,29,70,60,24,50,-26,45,38,40,-13,03,-25,72
37160,-9,60,-1,76,-9,90,96,00,17,60,-49,50,47,04,-8,44,-29,29
37176,-9,60,-1,76,-9,90,96,00,17,60,-49,50,54,38,-4,53,-32,32
37192,-6,37,-1,76,-10,39,63,70,17,60,-51,95,55,78,-1,21,-35,27
37211,-6,37,-1,76,-8,53,63,70,17,60,-42,65,56,97,1,61,-36,37
37226,-6,96,-1,76,-8,53,69,60,17,60,-42,65,58,86,4,01,-37,32
37241,-6,96,-1,76,-5,98,69,60,17,60,-29,90,60,47,6,05,-36,20
37256,-8,53,-1,67,-5,98,85,30,16,70,-29,90,64,20,7,65,-35,26
37272,-8,53,-1,67,-5,98,85,30,16,70,-29,90,67,36,9,00,-34,45
37288,-8,53,-1,67,-5,98,85,30,16,70,-29,90,70,05,10,16,-33,77
37305,-8,53,-1,37,-7,74,85,30,13,70,-38,70,72,34,10,69,-34,51
37325,-8,53,-1,37,-7,74,85,30,13,70,-38,70,74,28,11,14,-35,14
37341,-7,84,-2,25,-6,96,78,40,22,50,-34,80,74,90,12,84,-35,09
37356,-7,84,-2,25,-6,96,78,40,22,50,-34,80,75,43,14,29,-35,04
37372,-4,51,-0,69,-6,66,45,10,6,90,-33,30,70,88,13,18,-34,78
37389,-4,51,-0,69,-8,62,45,10,6,90,-43,10,67,01,12,24,-36,03
37411,-4,51,-0,20,-8,62,45,10,2,00,-43,10,63,72,10,71,-37,09
37428,-4,80,1,08,-11,17,48,00,-10,80,-55,85,61,37,7,48,-39,90
37449,-4,80,1,08,-11,17,48,00,-10,80,-55,85,59,36,4,74,-42,30
37465,-2,65,1,67,-11,86,26,50,-16,70,-59,30,54,43,1,52,-44,85
37486,-2,65,0,39,-10,58,26,50,-3,90,-52,90,50,24,0,71,-46,06
37503,-2,94,0,39,-10,58,29,40,-3,90,-52,90,47,12,0,02,-47,08
37521,-2,16,-1,47,-7,35,21,60,14,70,-36,75,43,29,2,22,-45,53
37538,-2,16,-1,47,-8,92,21,60,14,70,-44,60,40,04,4,09,-45,39
37554,0,88,-1,76,-8,92,-8,80,17,60,-44,60,32,71,6,12,-45,27
37570,0,88,-1,76,-8,72,-8,80,17,60,-43,60,26,48,7,84,-45,02
37587,4,90,-2,55,-8,72,-49,00,25,50,-43,60,15,16,10,49,-44,81
37603,4,90,-2,84,-8,43,-49,00,28,40,-42,15,5,54,13,18,-44,41
37620,5,68,-2,84,-8,43,-56,80,28,40,-42,15,-3,81,15,46,-44,07
37639,4,31,-0,88,-10,98,-43,10,8,80,-54,90,-9,71,14,46,-45,70
37659,4,31,-0,88,-14,11,-43,10,8,80,-70,55,-14,72,13,61,-49,42
37675,3,43,-0,98,-14,11,-34,30,9,80,-70,55,-17,65,13,04,-52,59
37691,3,43,-0,98,-14,11,-34,30,9,80,-70,55,-20,15,12,55,-55,29
37707,3,43,-0,98,-14,11,-34,30,9,80,-70,55,-22,27,12,14,-57,58
37722,3,43,-2,74,-7,35,-34,30,27,40,-36,75,-24,08,14,43,-54,45
37738,6,66,-2,74,-7,35,-66,60,27,40,-36,75,-30,46,16,38,-51,80
37753,6,66,-3,04,-9,11,-66,60,30,40,-45,55,-35,88,18,48,-50,86
37770,5,88,-3,04,-9,11,-58,80,30,40,-45,55,-39,32,20,27,-50,06
37791,3,82,-3,53,-9,21,-38,20,35,30,-46,05,-39,15,22,52,-49,46
37811,3,82,-3,53,-12,45,-38,20,35,30,-62,25,-39,01,24,44,-51,38
37833,1,86,-1,86,-12,45,-18,60,18,60,-62,25,-35,95,23,56,-53,01
37854,0,78,-3,04,-7,94,-7,80,30,40,-39,70,-31,72,24,59,-51,01
37872,0,78,-5,78,-6,86,-7,80,57,80,-34,30,-28,13,29,57,-48,51
37889,-2,35,-5,78,-6,86,23,50,57,80,-34,30,-20,39,33,80,-46,38
37906,-4,21,-6,37,-8,72,42,10,63,70,-43,60,-11,02,38,29,-45,96
37922,-4,21,-6,37,-8,72,42,10,63,70,-43,60,-3,05,42,10,-45,61
37939,-4,02,-6,47,-6,66,40,20,64,70,-33,30,3,44,45,49,-43,76
37958,-4,02,-6,47,-6,66,40,20,64,70,-33,30,8,95,48,37,-42,19
37974,-3,04,-8,23,-3,43,30,40,82,30,-17,15,12,17,53,46,-38,43
37990,-3,04,-8,23,-3,14,30,40,82,30,-15,70,14,90,57,79,-35,02
38005,-2,16,-7,64,-3,14,21,60,76,40,-15,70,15,91,60,58,-32,13
38021,-2,16,-7,64,-1,08,21,60,76,40,-5,40,16,76,62,95,-28,12
38036,-2,65,-7,35,-1,08,26,50,73,50,-5,40,18,22,64,53,-24,71
38059,-2,65,-4,41,-4,12,26,50,44,10,-20,60,19,46,61,47,-24,09
38080,0,59,-4,41,-6,47,-5,90,44,10,-32,35,15,66,58,86,-25,33
38095,0,49,-2,65,-6,47,-4,90,26,50,-32,35,12,58,54,01,-26,38
38110,0,49,-2,65,-6,47,-4,90,26,50,-32,35,9,95,49,88,-27,28
38126,0,49,-2,65,-6,47,-4,90,26,50,-32,35,7,73,46,38,-28,04
38145,0,49,-2,65,-10,88,-4,90,26,50,-54,40,5,83,43,39,-31,99
38161,-1,08,0,00,-10,88,10,80,-0,00,-54,40,6,58,36,88,-35,35
38177,0,59,1,08,-13,03,-5,90,-10,80,-65,15,4,71,29,73,-39,82
38194,0,59,1,08,-13,03,-5,90,-10,80,-65,15,3,12,23,65,-43,62
38210,0,59,1,08,-13,03,-5,90,-10,80,-65,15,1,76,18,48,-46,85
38225,0,59,1,08,-13,03,-5,90,-10,80,-65,15,0,61,14,09,-49,60
38243,-0,78,0,88,-11,17,7,80,-8,80,-55,85,1,69,10,66,-50,53
38259,-0,78,0,88,-14,31,7,80,-8,80,-71,55,2,61,7,74,-53,69
38275,-0,29,1,96,-14,31,2,90,-19,60,-71,55,2,65,3,64,-56,37
38291,-0,29,1,96,-14,70,2,90,-19,60,-73,50,2,69,0,15,-58,94
38307,-0,78,1,86,-14,70,7,80,-18,60,-73,50,3,46,-2,66,-61,12
38322,-0,78,1,47,-12,05,7,80,-14,70,-60,25,4,11,-4,47,-60,99
38338,0,00,1,47,-12,05,-0,00,-14,70,-60,25,3,49,-6,00,-60,88
38354,0,00,1,47,-7,84,-0,00,-14,70,-39,20,2,97,-7,31,-57,63
38370,0,78,1,47,-7,84,-7,80,-14,70,-39,20,1,35,-8,42,-54,86
38386,-1,27,-0,20,-7,94,12,70,2,00,-39,70,3,05,-6,85,-52,59
38403,-1,27,-0,20,-7,94,12,70,2,00,-39,70,4,50,-5,52,-50,66
38421,-0,29,-0,78,-11,37,2,90,7,80,-56,85,4,26,-3,53,-51,58
38437,-0,29,-0,78,-11,37,2,90,7,80,-56,85,4,06,-1,83,-52,37
38453,0,29,-0,20,-10,29,-2,90,2,00,-51,45,3,01,-1,25,-52,24
38470,0,29,-0,20,-6,96,-2,90,2,00,-34,80,2,13,-0,77,-49,62
38486,-2,45,-1,08,-6,96,24,50,10,80,-34,80,5,48,0,97,-47,40
38508,-2,45,0,20,-10,78,24,50,-2,00,-53,90,8,34,0,52,-48,37
38529,-2,65,0,20,-10,78,26,50,-2,00,-53,90,11,06,0,15,-49,20
38547,-2,65,0,20,-10,78,26,50,-2,00,-53,90,13,38,-0,18,-49,91
38563,-2,65,0,29,-10,88,26,50,-2,90,-54,40,15,34,-0,58,-50,58
38579,-1,57,0,29,-10,88,15,70,-2,90,-54,40,15,40,-0,93,-51,15
38594,-1,57,-0,29,-9,90,15,70,2,90,-49,50,15,44,-0,36,-50,91
38609,-0,49,-0,29,-9,90,4,90,2,90,-49,50,13,86,0,13,-50,69
38624,-0,49,0,39,-9,31,4,90,-3,90,-46,55,12,52,-0,47,-50,07
38640,-0,78,0,39,-9,31,7,80,-3,90,-46,55,11,81,-0,99,-49,54
38655,-0,78,0,49,-9,70,7,80,-4,90,-48,50,11,21,-1,57,-49,39
38671,-1,27,0,49,-9,70,12,70,-4,90,-48,50,11,43,-2,07,-49,25
38687,-1,08,0,78,-11,27,10,80,-7,80,-56,35,11,34,-2,93,-50,32
38703,-1,08,0,78,-11,27,10,80,-7,80,-56,35,11,26,-3,66,-51,22
38720,-0,88,0,69,-9,70,8,80,-6,90,-48,50,10,89,-4,15,-50,82
38740,-0,88,0,69,-9,80,8,80,-6,90,-49,00,10,57,-4,56,-50,54
38761,-1,08,0,78,-9,80,10,80,-7,80,-49,00,10,61,-5,05,-50,31
38779,-1,27,0,39,-10,29,12,70,-3,90,-51,45,10,92,-4,87,-50,48
38809,-1,27,0,39,-10,39,12,70,-3,90,-51,95,11,19,-4,73,-50,70
38831,-1,08,0,59,-10,09,10,80,-5,90,-50,45,11,13,-4,90,-50,66
38856,-1,08,0,69,-10,09,10,80,-6,90,-50,45,11,08,-5,20,-50,63
38876,-0,88,0,59,-9,60,8,80,-5,90,-48,00,10,74,-5,31,-50,24
38892,-0,88,0,59,-10,58,8,80,-5,90,-52,90,10,45,-5,40,-50,64
38910,-0,78,0,59,-10,58,7,80,-5,90,-52,90,10,05,-5,47,-50,98
38926,-0,78,0,49,-10,49,7,80,-4,90,-52,45,9,71,-5,39,-51,20
38941,-0,88,0,49,-10,49,8,80,-4,90,-52,45,9,58,-5,31,-51,39
38958,-0,88,0,49,-10,49,8,80,-4,90,-52,45,9,46,-5,25,-51,54
38974,-0,88,0,49,-10,49,8,80,-4,90,-52,45,9,36,-5,20,-51,68
38990,-0,78,0,59,-10,00,7,80,-5,90,-50,00,9,13,-5,30,-51,43
39009,-0,78,0,59,-10,00,7,80,-5,90,-50,00,8,93,-5,39,-51,21
39028,-0,59,0,69,-10,09,5,90,-6,90,-50,45,8,47,-5,62,-51,10
39049,-0,59,0,49,-10,49,5,90,-4,90,-52,45,8,09,-5,51,-51,30
39066,-0,49,0,49,-10,49,4,90,-4,90,-52,45,7,61,-5,42,-51,47
39082,0,00,-0,20,-9,41,-0,00,2,00,-47,05,6,47,-4,31,-50,81
39100,0,00,-0,20,-8,33,-0,00,2,00,-41,65,5,50,-3,36,-49,44
39120,-0,59,-0,10,-8,33,5,90,1,00,-41,65,5,56,-2,71,-48,27
39137,-1,57,1,18,-10,29,15,70,-11,80,-51,45,7,08,-4,07,-48,75
39158,-1,57,1,18,-9,11,15,70,-11,80,-45,55,8,37,-5,23,-48,27
39177,-1,37,0,59,-9,11,13,70,-5,90,-45,55,9,17,-5,33,-47,86
39193,-1,37,0,29,-9,02,13,70,-2,90,-45,10,9,85,-4,97,-47,45
39212,-1,37,0,29,-9,02,13,70,-2,90,-45,10,10,43,-4,66,-47,09
39229,-0,78,0,98,-11,07,7,80,-9,80,-55,35,10,03,-5,43,-48,33
39245,-0,78,0,98,-11,07,7,80,-9,80,-55,35,9,70,-6,08,-49,38
39264,-0,78,1,47,-10,88,7,80,-14,70,-54,40,9,41,-7,38,-50,14
39284,-0,78,1,57,-9,60,7,80,-15,70,-48,00,9,17,-8,62,-49,82
39303,-0,59,1,57,-9,60,5,90,-15,70,-48,00,8,68,-9,69,-49,54
39326,-0,88,1,37,-10,29,8,80,-13,70,-51,45,8,68,-10,29,-49,83
39345,-0,88,1,76,-10,49,8,80,-17,60,-52,45,8,68,-11,38,-50,22
39361,-1,27,1,76,-10,49,12,70,-17,60,-52,45,9,28,-12,32,-50,56
39379,-1,27,1,76,-10,49,12,70,-17,60,-52,45,9,80,-13,11,-50,84
39397,-1,27,1,76,-10,09,12,70,-17,60,-50,45,10,23,-13,78,-50,78
