Time,AccelX,AccelY,AccelZ,TargetAngleX,TargetAngleY,TargetAngleZ,CurrentAngleX,CurrentAngleY,CurrentAngleZ
425,0,29,0,69,-10,09,-13,80,-90,00,4,35,-2,07,-13,50,0,65
458,0,29,0,69,-10,09,-13,80,-90,00,4,35,-3,83,-24,98,1,21
549,0,29,0,69,-9,90,-13,80,-90,00,4,35,-5,33,-34,73,1,68
575,0,29,0,69,-9,90,-13,80,-90,00,4,35,-6,60,-43,02,2,08
596,0,29,0,59,-10,00,-11,80,-90,00,4,35,-7,38,-50,07,2,42
617,0,29,0,69,-10,09,-13,80,-90,00,4,35,-8,34,-56,06,2,71
642,0,20,0,69,-10,09,-13,80,-90,00,3,00,-9,16,-61,15,2,75
665,0,20,0,69,-10,09,-13,80,-90,00,3,00,-9,86,-65,48,2,79
686,0,20,0,69,-10,09,-13,80,-90,00,3,00,-10,45,-69,15,2,82
707,0,20,0,59,-10,00,-11,80,-90,00,3,00,-10,65,-72,28,2,82
736,0,20,0,59,-10,00,-11,80,-90,00,3,00,-10,82,-74,94,2,82
756,0,29,0,59,-10,00,-11,80,-90,00,4,35,-10,97,-77,20,3,05
777,0,20,0,69,-9,90,-13,80,-90,00,3,00,-11,39,-79,12,3,05
797,0,20,0,69,-10,09,-13,80,-90,00,3,00,-11,75,-80,75,3,05
817,0,20,0,69,-10,09,-13,80,-90,00,3,00,-12,06,-82,14,3,05
836,0,29,0,59,-10,00,-11,80,-90,00,4,35,-12,02,-83,32,3,25
857,0,29,0,59,-10,09,-11,80,-90,00,4,35,-11,99,-84,32,3,41
877,0,20,0,69,-10,09,-13,80,-90,00,3,00,-12,26,-85,17,3,35
896,0,29,0,59,-10,00,-11,80,-90,00,4,35,-12,19,-85,90,3,50
915,0,29,0,59,-10,09,-11,80,-90,00,4,35,-12,13,-86,51,3,63
933,0,29,0,69,-10,09,-13,80,-90,00,4,35,-12,38,-87,03,3,74
952,0,29,0,69,-10,09,-13,80,-90,00,4,35,-12,60,-87,48,3,83
974,0,29,0,69,-10,00,-13,80,-90,00,4,35,-12,78,-87,86,3,91
994,0,29,0,59,-10,00,-11,80,-90,00,4,35,-12,63,-88,18,3,97
1012,0,29,0,69,-10,09,-13,80,-90,00,4,35,-12,81,-88,45,4,03
1030,0,29,0,69,-10,09,-13,80,-90,00,4,35,-12,95,-88,68,4,08
1049,0,20,0,69,-10,09,-13,80,-90,00,3,00,-13,08,-88,88,3,92
1068,0,20,0,78,-10,00,-15,60,-90,00,3,00,-13,46,-89,05,3,78
1087,0,29,0,78,-10,00,-15,60,-90,00,4,35,-13,78,-89,19,3,86
1107,0,29,0,69,-10,09,-13,80,-90,00,4,35,-13,78,-89,31,3,94
1125,0,29,0,69,-10,00,-13,80,-90,00,4,35,-13,78,-89,42,4,00
1145,0,29,0,59,-10,00,-11,80,-90,00,4,35,-13,48,-89,50,4,05
1164,0,20,0,59,-10,00,-11,80,-90,00,3,00,-13,23,-89,58,3,89
1182,0,20,0,59,-10,00,-11,80,-90,00,3,00,-13,02,-89,64,3,76
1200,0,29,0,78,-10,00,-15,60,-90,00,4,35,-13,40,-89,70,3,85
1218,0,29,0,69,-10,09,-13,80,-90,00,4,35,-13,46,-89,74,3,92
1236,0,20,0,69,-10,09,-13,80,-90,00,3,00,-13,51,-89,78,3,79
1252,0,29,0,69,-9,90,-13,80,-90,00,4,35,-13,56,-89,81,3,87
1274,0,29,0,69,-10,00,-13,80,-90,00,4,35,-13,59,-89,81,3,94
1292,0,20,0,59,-10,00,-11,80,-90,00,3,00,-13,32,-89,81,3,80
1312,0,29,0,78,-10,00,-15,60,-90,00,4,35,-13,67,-89,81,3,88
1331,0,29,0,78,-10,00,-15,60,-90,00,4,35,-13,96,-89,81,3,95
1348,0,29,0,69,-10,09,-13,80,-90,00,4,35,-13,96,-89,81,4,01
1366,0,29,0,69,-10,09,-13,80,-90,00,4,35,-13,96,-89,81,4,06
1384,0,20,0,69,-10,09,-13,80,-90,00,3,00,-13,96,-89,81,3,90
1402,0,29,0,69,-9,90,-13,80,-90,00,4,35,-13,96,-89,81,3,97
1424,0,29,0,69,-10,09,-13,80,-90,00,4,35,-13,96,-89,81,4,03
1442,0,29,0,69,-10,09,-13,80,-90,00,4,35,-13,96,-89,81,4,08
1460,0,29,0,69,-10,09,-13,80,-90,00,4,35,-13,96,-89,81,4,12
1476,0,29,0,69,-10,09,-13,80,-90,00,4,35,-13,96,-89,81,4,15
1494,0,29,0,69,-10,09,-13,80,-90,00,4,35,-13,96,-89,81,4,15
1524,0,29,0,59,-10,00,-11,80,-90,00,4,35,-13,63,-89,81,4,15
1541,0,29,0,59,-10,00,-11,80,-90,00,4,35,-13,36,-89,81,4,15
1559,0,20,0,69,-10,09,-13,80,-90,00,3,00,-13,42,-89,81,3,98
1577,0,20,0,78,-10,00,-15,60,-90,00,3,00,-13,75,-89,81,3,83
1595,0,29,0,78,-10,00,-15,60,-90,00,4,35,-14,03,-89,81,3,91
1613,0,29,0,69,-10,09,-13,80,-90,00,4,35,-13,99,-89,81,3,98
1631,0,29,0,69,-10,09,-13,80,-90,00,4,35,-13,99,-89,81,4,03
1648,0,29,0,69,-10,09,-13,80,-90,00,4,35,-13,99,-89,81,4,08
1666,0,29,0,69,-10,09,-13,80,-90,00,4,35,-13,99,-89,81,4,12
1684,0,29,0,69,-10,09,-13,80,-90,00,4,35,-13,99,-89,81,4,15
1700,0,29,0,69,-9,90,-13,80,-90,00,4,35,-13,99,-89,81,4,15
1716,0,20,0,69,-9,90,-13,80,-90,00,3,00,-13,99,-89,81,3,98
1732,0,29,0,69,-10,09,-13,80,-90,00,4,35,-13,99,-89,81,4,04
1748,0,29,0,69,-10,09,-13,80,-90,00,4,35,-13,99,-89,81,4,08
1764,0,29,0,78,-10,00,-15,60,-90,00,4,35,-14,23,-89,81,4,12
1780,0,29,0,78,-10,00,-15,60,-90,00,4,35,-14,44,-89,81,4,16
1796,0,20,0,69,-10,09,-13,80,-90,00,3,00,-14,34,-89,81,3,98
1812,0,20,0,69,-10,00,-13,80,-90,00,3,00,-14,26,-89,81,3,84
1828,0,20,0,59,-10,00,-11,80,-90,00,3,00,-13,89,-89,81,3,71
1844,0,20,0,59,-10,00,-11,80,-90,00,3,00,-13,58,-89,81,3,60
1860,0,29,0,59,-10,00,-11,80,-90,00,4,35,-13,31,-89,81,3,72
1876,0,29,0,59,-10,09,-11,80,-90,00,4,35,-13,09,-89,81,3,81
1892,0,29,0,69,-10,09,-13,80,-90,00,4,35,-13,19,-89,81,3,89
1908,0,29,0,59,-10,00,-11,80,-90,00,4,35,-12,98,-89,81,3,96
1924,0,20,0,59,-10,00,-11,80,-90,00,3,00,-12,81,-89,81,3,82
1940,0,20,0,59,-10,00,-11,80,-90,00,3,00,-12,66,-89,81,3,69
1956,0,20,0,59,-10,00,-11,80,-90,00,3,00,-12,53,-89,81,3,59
1972,0,20,0,69,-10,09,-13,80,-90,00,3,00,-12,72,-89,81,3,50
1988,0,20,0,69,-10,09,-13,80,-90,00,3,00,-12,88,-89,81,3,43
2004,0,20,0,69,-10,09,-13,80,-90,00,3,00,-13,02,-89,81,3,36
2020,0,20,0,69,-10,09,-13,80,-90,00,3,00,-13,14,-89,81,3,31
2036,0,20,0,69,-10,09,-13,80,-90,00,3,00,-13,24,-89,81,3,26
2052,0,20,0,69,-10,09,-13,80,-90,00,3,00,-13,32,-89,81,3,22
2068,0,20,0,69,-10,09,-13,80,-90,00,3,00,-13,39,-89,81,3,19
2084,0,20,0,69,-10,00,-13,80,-90,00,3,00,-13,45,-89,81,3,19
2100,0,29,0,59,-10,00,-11,80,-90,00,4,35,-13,21,-89,81,3,36
2116,0,29,0,59,-10,09,-11,80,-90,00,4,35,-12,99,-89,81,3,51
2132,0,20,0,69,-10,09,-13,80,-90,00,3,00,-13,12,-89,81,3,43
2149,0,20,0,59,-10,00,-11,80,-90,00,3,00,-12,92,-89,81,3,37
2174,0,29,0,59,-10,00,-11,80,-90,00,4,35,-12,75,-89,81,3,52
2191,0,29,0,78,-10,00,-15,60,-90,00,4,35,-13,18,-89,81,3,64
2208,0,29,0,78,-10,09,-15,60,-90,00,4,35,-13,54,-89,81,3,75
2226,0,29,0,69,-10,09,-13,80,-90,00,4,35,-13,58,-89,81,3,84
2243,0,29,0,59,-10,00,-11,80,-90,00,4,35,-13,31,-89,81,3,91
2260,0,29,0,59,-10,00,-11,80,-90,00,4,35,-13,09,-89,81,3,98
2276,0,29,0,69,-10,09,-13,80,-90,00,4,35,-13,19,-89,81,4,04
2292,0,29,0,69,-10,09,-13,80,-90,00,4,35,-13,28,-89,81,4,08
2308,0,29,0,69,-10,09,-13,80,-90,00,4,35,-13,36,-89,81,4,12
2324,0,29,0,69,-10,00,-13,80,-90,00,4,35,-13,43,-89,81,4,16
2340,0,29,0,78,-10,00,-15,60,-90,00,4,35,-13,75,-89,81,4,16
2356,0,29,0,78,-10,09,-15,60,-90,00,4,35,-14,03,-89,81,4,16
2372,0,20,0,69,-10,09,-13,80,-90,00,3,00,-14,00,-89,81,3,98
2388,0,20,0,69,-10,09,-13,80,-90,00,3,00,-14,00,-89,81,3,84
2404,0,20,0,69,-10,09,-13,80,-90,00,3,00,-14,00,-89,81,3,71
2420,0,20,0,59,-10,00,-11,80,-90,00,3,00,-13,67,-89,81,3,60
2436,0,29,0,59,-10,00,-11,80,-90,00,4,35,-13,39,-89,81,3,72
2452,0,29,0,59,-10,00,-11,80,-90,00,4,35,-13,15,-89,81,3,81
2468,0,29,0,59,-10,00,-11,80,-90,00,4,35,-12,95,-89,81,3,89
2484,0,29,0,78,-10,00,-15,60,-90,00,4,35,-13,34,-89,81,3,96
2500,0,29,0,78,-10,00,-15,60,-90,00,4,35,-13,68,-89,81,4,02
2516,0,20,0,78,-10,00,-15,60,-90,00,3,00,-13,97,-89,81,3,87
2532,0,20,0,78,-10,00,-15,60,-90,00,3,00,-14,21,-89,81,3,74
2548,0,29,0,69,-10,09,-13,80,-90,00,4,35,-14,15,-89,81,3,83
2564,0,29,0,69,-10,09,-13,80,-90,00,4,35,-14,10,-89,81,3,91
2580,0,29,0,69,-10,09,-13,80,-90,00,4,35,-14,05,-89,81,3,97
2596,0,29,0,69,-10,09,-13,80,-90,00,4,35,-14,02,-89,81,4,03
2612,0,29,0,69,-10,09,-13,80,-90,00,4,35,-13,98,-89,81,4,08
2628,0,29,0,69,-10,09,-13,80,-90,00,4,35,-13,98,-89,81,4,12
2644,0,20,0,69,-10,09,-13,80,-90,00,3,00,-13,98,-89,81,3,95
2660,0,20,0,69,-10,09,-13,80,-90,00,3,00,-13,98,-89,81,3,81
2676,0,29,0,69,-10,09,-13,80,-90,00,4,35,-13,98,-89,81,3,89
2692,0,29,0,69,-10,09,-13,80,-90,00,4,35,-13,98,-89,81,3,96
2724,0,20,0,69,-10,09,-13,80,-90,00,3,00,-13,98,-89,81,3,81
2740,0,20,0,69,-10,09,-13,80,-90,00,3,00,-13,98,-89,81,3,69
2756,0,20,0,78,-10,00,-15,60,-90,00,3,00,-14,23,-89,81,3,59
2772,0,20,0,78,-10,00,-15,60,-90,00,3,00,-14,43,-89,81,3,50
2788,0,29,0,69,-9,90,-13,80,-90,00,4,35,-14,34,-89,81,3,63
2804,0,29,0,69,-10,09,-13,80,-90,00,4,35,-14,26,-89,81,3,74
2820,0,20,0,69,-10,09,-13,80,-90,00,3,00,-14,19,-89,81,3,63
2836,0,20,0,69,-10,00,-13,80,-90,00,3,00,-14,13,-89,81,3,53
2852,0,20,0,59,-10,00,-11,80,-90,00,3,00,-13,78,-89,81,3,45
2868,0,20,0,78,-10,00,-15,60,-90,00,3,00,-14,05,-89,81,3,38
2884,0,20,0,78,-10,00,-15,60,-90,00,3,00,-14,29,-89,81,3,33
2900,0,20,0,69,-10,09,-13,80,-90,00,3,00,-14,21,-89,81,3,28
2916,0,29,0,69,-10,09,-13,80,-90,00,4,35,-14,15,-89,81,3,44
2932,0,29,0,78,-10,00,-15,60,-90,00,4,35,-14,37,-89,81,3,58
2948,0,29,0,78,-10,00,-15,60,-90,00,4,35,-14,55,-89,81,3,69
2964,0,29,0,78,-10,00,-15,60,-90,00,4,35,-14,71,-89,81,3,79
2980,0,29,0,78,-10,00,-15,60,-90,00,4,35,-14,84,-89,81,3,87
2996,0,29,0,69,-10,09,-13,80,-90,00,4,35,-14,69,-89,81,3,95
3012,0,29,0,69,-10,09,-13,80,-90,00,4,35,-14,55,-89,81,4,01
3028,0,29,0,69,-10,09,-13,80,-90,00,4,35,-14,44,-89,81,4,06
3044,0,29,0,69,-10,09,-13,80,-90,00,4,35,-14,34,-89,81,4,10
3060,0,20,0,69,-10,09,-13,80,-90,00,3,00,-14,26,-89,81,3,94
3076,0,20,0,69,-10,00,-13,80,-90,00,3,00,-14,19,-89,81,3,80
3092,0,20,0,59,-10,00,-11,80,-90,00,3,00,-13,83,-89,81,3,68
3123,0,20,0,69,-10,09,-13,80,-90,00,3,00,-13,83,-89,81,3,58
3139,0,20,0,78,-10,00,-15,60,-90,00,3,00,-14,10,-89,81,3,49
3155,0,20,0,78,-10,00,-15,60,-90,00,3,00,-14,32,-89,81,3,42
3171,0,20,0,69,-10,09,-13,80,-90,00,3,00,-14,25,-89,81,3,35
3187,0,20,0,69,-10,09,-13,80,-90,00,3,00,-14,18,-89,81,3,30
3203,0,20,0,69,-10,09,-13,80,-90,00,3,00,-14,12,-89,81,3,26
3219,0,20,0,69,-10,09,-13,80,-90,00,3,00,-14,07,-89,81,3,22
3235,0,29,0,69,-10,09,-13,80,-90,00,4,35,-14,03,-89,81,3,39
3251,0,29,0,69,-10,09,-13,80,-90,00,4,35,-14,00,-89,81,3,53
3267,1,27,0,29,-9,21,-5,80,-90,00,19,05,-12,77,-89,81,5,86
3283,1,27,0,29,-10,09,-5,80,-90,00,19,05,-11,72,-89,81,7,84
3307,1,08,1,37,-10,09,-27,40,-90,00,16,20,-14,07,-89,81,9,09
3324,0,29,0,49,-9,70,-9,80,-90,00,4,35,-13,43,-89,81,8,38
3341,0,29,0,49,-9,70,-9,80,-90,00,4,35,-12,89,-89,81,7,78
3359,0,20,0,59,-10,00,-11,80,-90,00,3,00,-12,73,-89,81,7,06
3376,0,20,0,59,-9,90,-11,80,-90,00,3,00,-12,59,-89,81,6,45
3393,0,49,0,49,-9,90,-9,80,-90,00,7,35,-12,17,-89,81,6,59
3410,0,49,0,88,-9,90,-17,60,-90,00,7,35,-12,98,-89,81,6,70
3427,0,59,0,88,-9,90,-17,60,-90,00,8,85,-13,68,-89,81,7,02
3443,0,59,0,88,-9,90,-17,60,-90,00,8,85,-14,26,-89,81,7,30
3459,0,59,0,88,-9,90,-17,60,-90,00,8,85,-14,76,-89,81,7,53
3475,0,00,0,29,-10,19,-5,80,-90,00,0,00,-13,42,-89,81,6,40
3491,0,00,0,29,-10,19,-5,80,-90,00,0,00,-12,28,-89,81,5,44
3507,-0,29,1,96,-9,80,-39,20,-90,00,-4,35,-16,32,-89,81,3,97
3523,-0,29,1,96,-12,45,-39,20,-90,00,-4,35,-19,75,-89,81,2,72
3540,1,86,1,96,-12,45,-39,20,-90,00,27,90,-22,67,-89,81,6,50
3557,1,86,1,96,-13,72,-39,20,-90,00,27,90,-25,15,-89,81,9,71
3574,-0,20,2,45,-13,72,-49,00,-90,00,-3,00,-28,72,-89,81,7,80
3591,-0,20,2,94,-10,68,-58,80,-90,00,-3,00,-33,24,-89,81,6,18
3608,2,16,2,94,-10,68,-58,80,-90,00,32,40,-37,07,-89,81,10,12
3625,1,57,2,45,-11,56,-49,00,-90,00,23,55,-38,86,-89,81,12,13
3642,1,57,2,45,-13,33,-49,00,-90,00,23,55,-40,38,-89,81,13,84
3660,2,16,1,86,-13,33,-37,20,-90,00,32,40,-39,90,-89,81,16,63
3677,2,16,1,86,-8,92,-37,20,-90,00,32,40,-39,50,-89,81,18,99
3696,1,96,2,84,-8,92,-56,80,-90,00,29,40,-42,09,-89,81,20,55
3713,3,82,2,55,-8,53,-51,00,-90,00,57,30,-43,43,-89,81,26,07
3730,3,82,2,55,-8,53,-51,00,-90,00,57,30,-44,56,-89,81,30,75
3747,2,74,1,86,-10,09,-37,20,-90,00,41,10,-43,46,-89,81,32,30
3763,2,74,1,86,-10,09,-37,20,-90,00,41,10,-42,52,-89,81,33,62
3779,3,43,1,86,-10,09,-37,20,-90,00,51,45,-41,72,-89,81,36,30
3795,3,43,1,86,-9,02,-37,20,-90,00,51,45,-41,04,-89,81,38,57
3811,3,82,1,47,-9,02,-29,40,-90,00,57,30,-39,30,-89,81,41,38
3827,3,82,0,88,-8,33,-17,60,-90,00,57,30,-36,04,-89,81,43,77
3843,2,45,0,88,-8,33,-17,60,-90,00,36,75,-33,28,-89,81,42,71
3859,2,45,0,69,-8,23,-13,80,-90,00,36,75,-30,36,-89,81,41,82
3875,1,96,0,69,-8,23,-13,80,-90,00,29,40,-27,87,-89,81,39,96
3891,1,96,0,39,-8,92,-7,80,-90,00,29,40,-24,86,-89,81,38,37
3907,1,37,0,39,-8,92,-7,80,-90,00,20,55,-22,30,-89,81,35,70
3923,0,88,0,39,-6,96,-7,80,-90,00,13,20,-20,13,-89,81,32,33
3939,0,88,0,39,-6,96,-7,80,-90,00,13,20,-18,28,-89,81,29,46
3955,0,88,0,39,-6,96,-7,80,-90,00,13,20,-16,71,-89,81,27,02
3971,0,88,0,39,-6,96,-7,80,-90,00,13,20,-15,37,-89,81,24,95
3987,0,49,0,39,-6,76,-7,80,-90,00,7,35,-14,23,-89,81,22,31
4003,0,49,0,39,-7,94,-7,80,-90,00,7,35,-13,27,-89,81,20,06
4019,0,00,-0,98,-7,94,19,60,-90,00,0,00,-8,34,-89,81,17,05
4035,0,00,-0,98,-8,04,19,60,-90,00,0,00,-4,15,-89,81,14,50
4051,-0,49,-1,37,-8,04,27,40,-90,00,-7,35,0,58,-89,81,11,22
4067,-0,49,-1,57,-6,96,31,40,-90,00,-7,35,5,21,-89,81,8,43
4083,-0,20,-1,57,-6,96,31,40,-90,00,-3,00,9,14,-89,81,6,72
4099,-0,20,-1,86,-9,21,37,20,-90,00,-3,00,13,35,-89,81,5,26
4115,-0,88,-1,86,-9,21,37,20,-90,00,-13,20,16,92,-89,81,2,49
4131,-1,27,-1,47,-8,82,29,40,-90,00,-19,05,18,79,-89,81,-0,74
4147,-1,27,-1,47,-8,82,29,40,-90,00,-19,05,20,39,-89,81,-3,49
4163,-1,57,-1,76,-9,11,35,20,-90,00,-23,55,22,61,-89,81,-6,50
4179,-1,57,-1,76,-9,11,35,20,-90,00,-23,55,24,50,-89,81,-9,05
4195,0,59,-2,35,-9,02,47,00,-90,00,8,85,27,87,-89,81,-6,37
4211,0,59,-2,35,-9,02,47,00,-90,00,8,85,30,74,-89,81,-4,09
4228,1,27,-1,67,-9,02,33,40,-90,00,19,05,31,14,-89,81,-0,62
4244,1,27,-1,67,-15,78,33,40,-90,00,19,05,31,48,-89,81,2,33
4260,-4,90,-2,25,-15,78,45,00,-90,00,-73,50,33,51,-89,81,-9,04
4276,-4,90,-2,25,-14,80,45,00,-90,00,-73,50,35,23,-89,81,-18,71
4292,-4,61,-2,74,-14,80,54,80,-90,00,-69,15,38,17,-89,81,-26,28
4308,-4,61,-1,96,-10,39,39,20,-90,00,-69,15,38,32,-89,81,-32,71
4339,1,57,-1,76,-10,58,35,20,-90,00,23,55,37,85,-89,81,-24,27
4355,2,16,-1,76,-10,58,35,20,-90,00,32,40,37,46,-89,81,-15,77
4371,2,16,-0,59,-12,74,11,80,-90,00,32,40,33,61,-89,81,-8,54
4387,1,67,-0,59,-12,74,11,80,-90,00,25,05,30,34,-89,81,-3,50
4403,1,37,-1,96,-10,68,39,20,-90,00,20,55,31,67,-89,81,0,10
4424,1,37,-1,96,-9,70,39,20,-90,00,20,55,32,80,-89,81,3,17
4452,0,78,-3,63,-9,70,72,60,-90,00,11,70,38,77,-89,81,4,45
4473,0,78,-3,63,-9,70,72,60,-90,00,11,70,43,84,-89,81,5,54
4491,0,78,-2,45,-9,70,49,00,-90,00,11,70,44,62,-89,81,6,46
4508,1,08,-2,45,-9,70,49,00,-90,00,16,20,45,27,-89,81,7,92
4525,0,78,-1,76,-8,53,35,20,-90,00,11,70,43,76,-89,81,8,49
4542,0,78,-1,76,-10,98,35,20,-90,00,11,70,42,48,-89,81,8,97
4559,2,16,-0,29,-10,98,5,80,-90,00,32,40,36,98,-89,81,12,49
4576,2,16,-0,29,-10,00,5,80,-90,00,32,40,32,30,-89,81,15,47
4592,1,86,-0,69,-10,00,13,80,-90,00,27,90,29,52,-89,81,17,34
4608,1,86,-0,39,-10,58,7,80,-90,00,27,90,26,27,-89,81,18,92
4625,0,88,-0,39,-10,58,7,80,-90,00,13,20,23,50,-89,81,18,06
4643,0,20,0,00,-10,29,-0,00,-90,00,3,00,19,97,-89,81,15,80
4659,0,20,0,00,-10,29,-0,00,-90,00,3,00,16,98,-89,81,13,88
4676,0,59,-0,39,-10,39,7,80,-90,00,8,85,15,60,-89,81,13,13
4693,0,59,-0,39,-10,98,7,80,-90,00,8,85,14,43,-89,81,12,49
4710,0,88,-0,29,-10,98,5,80,-90,00,13,20,13,14,-89,81,12,59
4727,0,88,-0,49,-7,64,9,80,-90,00,13,20,12,63,-89,81,12,68
4744,-0,29,-0,49,-7,64,9,80,-90,00,-4,35,12,21,-89,81,10,13
4761,-0,29,0,59,-10,39,-11,80,-90,00,-4,35,8,61,-89,81,7,96
4778,-1,86,0,59,-10,39,-11,80,-90,00,-27,90,5,55,-89,81,2,58
4796,-1,37,0,39,-11,37,-7,80,-90,00,-20,55,3,54,-89,81,-0,89
4813,-1,37,0,39,-11,76,-7,80,-90,00,-20,55,1,84,-89,81,-3,84
4830,-1,08,0,00,-11,76,-0,00,-90,00,-16,20,1,57,-89,81,-5,69
4847,-1,08,0,00,-8,92,-0,00,-90,00,-16,20,1,33,-89,81,-7,27
4864,-1,67,-0,39,-8,92,7,80,-90,00,-25,05,2,30,-89,81,-9,94
4881,-1,67,0,88,-9,21,-17,60,-90,00,-25,05,-0,68,-89,81,-12,20
4898,-4,90,0,88,-9,21,-17,60,-90,00,-73,50,-3,22,-89,81,-21,40
4915,-5,39,0,88,-9,51,-17,60,-90,00,-80,85,-5,38,-89,81,-30,32
4932,-5,39,0,88,-9,51,-17,60,-90,00,-80,85,-7,21,-89,81,-37,90
4949,-5,39,0,88,-9,51,-17,60,-90,00,-80,85,-8,77,-89,81,-44,34
4966,-5,39,0,88,-12,35,-17,60,-90,00,-80,85,-10,09,-89,81,-49,82
4983,-5,10,1,67,-12,35,-33,40,-90,00,-76,50,-13,59,-89,81,-53,82
5000,-5,10,-0,29,-5,68,5,80,-90,00,-76,50,-10,68,-89,81,-57,22
5017,-6,17,-0,29,-5,68,5,80,-90,00,-90,00,-8,21,-89,81,-62,14
5034,-8,13,-0,49,-4,02,9,80,-80,40,-90,00,-5,51,-88,40,-66,32
5051,-8,13,-0,49,-4,02,9,80,-80,40,-90,00,-3,21,-87,20,-69,87
5068,-9,11,0,49,-7,06,-9,80,-90,00,-90,00,-4,20,-87,62,-72,89
5085,-9,11,0,49,-6,47,-9,80,-90,00,-90,00,-5,04,-87,98,-75,46
5108,-9,11,0,39,-6,47,-7,80,-90,00,-90,00,-5,45,-88,28,-77,64
5125,-9,11,0,20,-4,31,-4,00,-86,20,-90,00,-5,24,-87,97,-79,49
5142,-9,11,0,20,-4,31,-4,00,-86,20,-90,00,-5,05,-87,70,-81,07
5159,-9,11,-0,20,-3,82,4,00,-76,40,-90,00,-3,69,-86,01,-82,41
5176,-9,11,-0,20,-2,55,4,00,-51,00,-90,00,-2,54,-80,76,-83,55
5193,-9,60,-0,49,-2,55,9,80,-51,00,-90,00,-0,69,-76,29,-84,51
5210,-9,60,-0,20,-2,16,4,00,-43,20,-90,00,0,02,-71,33,-85,34
5227,-10,39,-0,20,-2,16,4,00,-43,20,-90,00,0,61,-67,11,-86,04
5244,-10,49,0,49,-3,04,-9,80,-60,80,-90,00,-0,95,-66,16,-86,63
5261,-10,49,0,49,-3,04,-9,80,-60,80,-90,00,-2,28,-65,36,-87,14
5278,-10,78,-0,98,0,00,19,60,0,00,-90,00,1,00,-55,56,-87,57
5295,-10,78,-0,98,-1,18,19,60,-23,60,-90,00,3,79,-50,76,-87,93
5312,-11,27,-0,20,-1,18,4,00,-23,60,-90,00,3,82,-46,69,-88,24
5329,-11,27,-0,98,-1,67,19,60,-33,40,-90,00,6,19,-44,69,-88,51
5346,-11,07,-0,98,-1,67,19,60,-33,40,-90,00,8,20,-43,00,-88,73
5363,-10,68,-2,06,-0,10,41,20,-2,00,-90,00,13,15,-36,85,-88,92
5380,-10,68,-2,06,-0,10,41,20,-2,00,-90,00,17,36,-31,62,-89,08
5397,-9,90,-2,06,-1,67,41,20,-33,40,-90,00,20,94,-31,89,-89,22
5414,-9,90,-2,06,-1,96,41,20,-39,20,-90,00,23,98,-32,99,-89,34
5430,-8,62,-3,04,-1,96,60,80,-39,20,-90,00,29,50,-33,92,-89,44
5446,-8,62,-3,04,-1,96,60,80,-39,20,-90,00,34,19,-34,71,-89,52
5462,-8,62,-3,04,-1,96,60,80,-39,20,-90,00,38,18,-35,38,-89,59
5478,-8,62,-2,55,-1,57,51,00,-31,40,-90,00,40,11,-34,79,-89,65
5494,-9,11,-2,55,-1,57,51,00,-31,40,-90,00,41,74,-34,28,-89,71
5510,-9,11,-1,96,-2,06,39,20,-41,20,-90,00,41,36,-35,32,-89,75
5526,-9,70,-1,96,-2,06,39,20,-41,20,-90,00,41,04,-36,20,-89,79
5542,-9,70,-1,76,-1,47,35,20,-29,40,-90,00,40,16,-35,18,-89,82
5558,-10,00,-1,76,-1,47,35,20,-29,40,-90,00,39,42,-34,31,-89,82
5574,-10,00,-1,57,-2,16,31,40,-43,20,-90,00,38,21,-35,65,-89,82
5590,-10,00,-1,57,-2,16,31,40,-43,20,-90,00,37,19,-36,78,-89,82
5607,-9,41,-2,35,-0,98,47,00,-19,60,-90,00,38,66,-34,20,-89,82
5623,-9,41,-2,35,-1,76,47,00,-35,20,-90,00,39,91,-34,35,-89,82
5640,-10,00,-1,86,-1,76,37,20,-35,20,-90,00,39,51,-34,48,-89,82
5657,-10,00,-2,25,-0,88,45,00,-17,60,-90,00,40,33,-31,95,-89,82
5674,-9,70,-2,25,-0,88,45,00,-17,60,-90,00,41,03,-29,79,-89,82
5690,-9,70,-1,86,-2,35,37,20,-47,00,-90,00,40,46,-32,38,-89,82
5706,-9,70,-1,86,-2,35,37,20,-47,00,-90,00,39,97,-34,57,-89,82
5724,-9,70,-1,86,-2,35,37,20,-47,00,-90,00,39,55,-36,43,-89,82
5741,-9,70,-1,86,-2,35,37,20,-47,00,-90,00,39,20,-38,02,-89,82
5757,-9,41,-2,45,-1,67,49,00,-33,40,-90,00,40,67,-37,33,-89,82
5774,-9,41,-2,45,-2,06,49,00,-41,20,-90,00,41,92,-37,91,-89,82
5790,-9,41,-2,25,-2,06,45,00,-41,20,-90,00,42,38,-38,40,-89,82
5807,-9,41,-2,25,-4,61,45,00,-90,00,-90,00,42,77,-46,14,-89,82
5824,-9,70,-1,18,-4,61,23,60,-90,00,-90,00,39,90,-52,72,-89,82
5841,-9,70,-1,57,-2,16,31,40,-43,20,-90,00,38,62,-51,29,-89,82
5858,-10,19,-1,57,-2,16,31,40,-43,20,-90,00,37,54,-50,08,-89,82
5874,-9,70,-1,57,-2,16,31,40,-43,20,-90,00,36,62,-49,05,-89,82
5891,-9,70,-1,57,-2,16,31,40,-43,20,-90,00,35,84,-48,17,-89,82
5907,-9,21,-0,20,-6,47,4,00,-90,00,-90,00,31,06,-54,44,-89,82
5924,-9,21,-0,20,-6,47,4,00,-90,00,-90,00,27,00,-59,78,-89,82
5940,-9,21,-0,20,-6,47,4,00,-90,00,-90,00,23,55,-64,31,-89,82
5956,-9,21,-0,20,-3,33,4,00,-66,60,-90,00,20,62,-64,65,-89,82
5972,-9,21,-1,57,-3,33,31,40,-66,60,-90,00,22,24,-64,95,-89,82
5988,-9,21,-1,57,-3,14,31,40,-62,80,-90,00,23,61,-64,62,-89,82
6004,-8,82,-1,76,-3,14,35,20,-62,80,-90,00,25,35,-64,35,-89,82
6020,-8,82,0,98,-10,09,-19,60,-90,00,-90,00,18,61,-68,20,-89,82
6036,-7,74,0,98,-10,09,-19,60,-90,00,-90,00,12,88,-71,47,-89,82
6052,-7,74,1,18,-9,90,-23,60,-90,00,-90,00,7,40,-74,25,-89,82
6068,-7,25,1,18,-9,90,-23,60,-90,00,-90,00,2,75,-76,61,-89,82
6084,-7,55,-1,47,-3,82,29,40,-76,40,-90,00,6,75,-76,58,-89,82
6100,-7,55,-1,47,-3,82,29,40,-76,40,-90,00,10,15,-76,58,-89,82
6116,-6,47,0,59,-8,82,-11,80,-90,00,-90,00,6,86,-78,59,-89,82
6132,-6,47,0,59,-8,82,-11,80,-90,00,-90,00,4,06,-80,30,-89,82
6148,-6,17,0,88,-11,37,-17,60,-90,00,-90,00,0,81,-81,76,-89,82
6164,-6,17,0,88,-9,80,-17,60,-90,00,-90,00,-1,95,-82,99,-89,82
6180,-4,61,0,59,-9,80,-11,80,-90,00,-69,15,-3,43,-84,05,-86,72
6196,-4,61,0,59,-9,02,-11,80,-90,00,-69,15,-4,69,-84,94,-84,08
6212,-5,10,-0,10,-9,02,2,00,-90,00,-76,50,-3,68,-85,70,-82,95
6228,-5,10,-0,78,-7,94,15,60,-90,00,-76,50,-0,79,-86,34,-81,98
6244,-3,43,-0,78,-7,94,15,60,-90,00,-51,45,1,67,-86,89,-77,40
6260,-3,43,-0,69,-9,51,13,80,-90,00,-51,45,3,49,-87,36,-73,51
6276,-1,86,-0,69,-9,51,13,80,-90,00,-27,90,5,03,-87,75,-66,67
6292,-1,86,-0,98,-10,88,19,60,-90,00,-27,90,7,22,-88,09,-60,85
6308,-0,88,-0,98,-10,88,19,60,-90,00,-13,20,9,08,-88,38,-53,70
6340,1,67,-2,16,-9,41,43,20,-90,00,25,05,14,20,-88,62,-41,89
6356,1,37,-1,96,-8,92,39,20,-90,00,20,55,17,95,-88,83,-32,52
6372,1,37,-1,96,-8,92,39,20,-90,00,20,55,21,13,-89,00,-24,56
6388,0,78,-1,57,-9,41,31,40,-90,00,11,70,22,67,-89,15,-19,12
6404,0,78,-1,57,-9,41,31,40,-90,00,11,70,23,98,-89,28,-14,50
6420,1,67,-1,18,-9,41,23,60,-90,00,25,05,23,93,-89,39,-8,57
6436,1,67,-1,18,-9,41,23,60,-90,00,25,05,23,88,-89,48,-3,53
6452,1,67,-1,18,-9,41,23,60,-90,00,25,05,23,84,-89,56,0,76
6468,1,67,-1,67,-9,02,33,40,-90,00,25,05,25,27,-89,62,4,40
6484,2,74,-1,67,-9,02,33,40,-90,00,41,10,26,49,-89,68,9,91
6500,2,74,-1,76,-9,70,35,20,-90,00,41,10,27,80,-89,73,14,59
6516,4,21,-1,76,-9,70,35,20,-90,00,63,15,28,91,-89,77,21,87
6532,4,21,-2,16,-9,70,43,20,-90,00,63,15,31,05,-89,80,28,06
6548,5,29,-2,16,-9,70,43,20,-90,00,79,35,32,87,-89,80,35,76
6564,5,29,-2,16,-7,45,43,20,-90,00,79,35,34,42,-89,80,42,30
6580,5,29,-2,16,-7,45,43,20,-90,00,79,35,35,74,-89,80,47,85
6596,6,17,-2,16,-8,43,43,20,-90,00,90,00,36,86,-89,80,54,18
6612,6,17,-2,16,-8,43,43,20,-90,00,90,00,37,81,-89,80,59,55
6628,6,66,-2,45,-7,64,49,00,-90,00,90,00,39,49,-89,80,64,12
6644,6,66,-2,45,-8,33,49,00,-90,00,90,00,40,91,-89,80,68,00
6660,5,88,-1,47,-8,33,29,40,-90,00,88,20,39,19,-89,80,71,03
6676,5,88,-1,47,-8,13,29,40,-90,00,88,20,37,72,-89,80,73,61
6692,7,06,-1,76,-8,13,35,20,-90,00,90,00,37,34,-89,80,76,06
6708,7,06,-1,18,-8,62,23,60,-90,00,90,00,35,28,-89,80,78,15
6740,7,06,-0,88,-7,55,17,60,-90,00,90,00,32,63,-89,80,79,93
6756,5,98,-0,88,-7,55,17,60,-90,00,89,70,30,37,-89,80,81,40
6772,5,98,-0,98,-6,66,19,60,-90,00,89,70,28,76,-89,80,82,64
6788,6,96,-0,98,-6,66,19,60,-90,00,90,00,27,38,-89,80,83,75
6804,8,04,-1,57,-6,08,31,40,-90,00,90,00,27,99,-89,80,84,68
6820,8,04,-1,57,-6,08,31,40,-90,00,90,00,28,50,-89,80,85,48
6836,8,33,-1,47,-5,88,29,40,-90,00,90,00,28,63,-89,80,86,16
6852,8,33,-1,47,-5,88,29,40,-90,00,90,00,28,75,-89,80,86,74
6868,8,33,-1,47,-5,88,29,40,-90,00,90,00,28,85,-89,80,87,23
6884,8,33,-1,47,-5,88,29,40,-90,00,90,00,28,93,-89,80,87,64
6900,9,60,-0,69,-5,88,13,80,-90,00,90,00,26,66,-89,80,88,00
6916,9,60,-0,69,-2,65,13,80,-53,00,90,00,24,73,-84,28,88,30
6932,10,68,-1,96,-2,65,39,20,-53,00,90,00,26,90,-79,59,88,55
6949,10,68,-1,96,-2,65,39,20,-53,00,90,00,28,75,-75,60,88,77
6974,10,68,-1,96,-4,70,39,20,-90,00,90,00,30,31,-77,76,88,95
6990,10,49,-0,88,-4,70,17,60,-90,00,90,00,28,41,-79,60,89,11
7007,10,49,-0,78,-4,12,15,60,-82,40,90,00,26,49,-80,02,89,24
7024,10,00,-0,78,-4,12,15,60,-82,40,90,00,24,85,-80,38,89,36
7040,10,00,-0,98,-3,63,19,60,-72,60,90,00,24,07,-79,21,89,45
7057,9,41,-0,98,-3,63,19,60,-72,60,90,00,23,40,-78,22,89,54
7074,10,39,-1,57,-1,47,31,40,-29,40,90,00,24,60,-70,89,89,61
7091,10,39,-1,57,-1,47,31,40,-29,40,90,00,25,62,-64,67,89,66
7107,10,49,-1,18,-1,96,23,60,-39,20,90,00,25,31,-60,85,89,71
7124,10,49,-1,18,-2,65,23,60,-53,00,90,00,25,06,-59,67,89,76
7140,11,56,-0,78,-2,65,15,60,-53,00,90,00,23,64,-58,67,89,79
7156,11,56,-0,78,-1,96,15,60,-39,20,90,00,22,43,-55,75,89,82
7172,12,05,-1,37,-1,96,27,40,-39,20,90,00,23,18,-53,27,89,82
7188,12,05,-1,37,-1,76,27,40,-35,20,90,00,23,81,-50,56,89,82
7204,11,86,-1,37,-1,76,27,40,-35,20,90,00,24,35,-48,25,89,82
7220,11,86,-0,39,-2,74,7,80,-54,80,90,00,21,87,-49,24,89,82
7236,10,78,-0,39,-2,74,7,80,-54,80,90,00,19,76,-50,07,89,82
7252,10,78,-0,29,-2,84,5,80,-56,80,90,00,17,66,-51,08,89,82
7268,10,39,-0,29,-2,84,5,80,-56,80,90,00,15,88,-51,94,89,82
7284,9,60,0,00,-3,43,-0,00,-68,60,90,00,13,50,-54,44,89,82
7300,9,60,0,00,-3,43,-0,00,-68,60,90,00,11,48,-56,56,89,82
7316,10,19,-1,08,-3,72,21,60,-74,40,90,00,12,99,-59,24,89,82
7332,10,19,-1,08,-3,72,21,60,-74,40,90,00,14,29,-61,51,89,82
7348,11,07,-1,86,-3,33,37,20,-66,60,90,00,17,72,-62,28,89,82
7364,11,07,-1,86,-4,12,37,20,-82,40,90,00,20,64,-65,29,89,82
7380,11,07,-1,37,-4,12,27,40,-82,40,90,00,21,66,-67,86,89,82
7396,11,07,-1,37,-4,31,27,40,-86,20,90,00,22,52,-70,61,89,82
7412,10,19,-1,08,-4,31,21,60,-86,20,90,00,22,38,-72,95,89,82
7428,10,19,-0,39,-5,78,7,80,-90,00,90,00,20,19,-75,51,89,82
7444,8,62,-0,39,-5,78,7,80,-90,00,90,00,18,33,-77,68,89,82
7460,8,62,-0,39,-5,78,7,80,-90,00,90,00,16,75,-79,53,89,82
7476,8,62,-0,39,-5,78,7,80,-90,00,90,00,15,41,-81,10,89,82
7492,8,62,-0,39,-5,78,7,80,-90,00,90,00,14,27,-82,43,89,82
7508,8,62,-0,39,-5,78,7,80,-90,00,90,00,13,30,-83,57,89,82
7524,8,62,-0,88,-5,98,17,60,-90,00,90,00,13,94,-84,53,89,82
7556,7,45,-1,57,-6,08,31,40,-90,00,90,00,16,56,-85,35,89,82
7572,7,45,-1,57,-5,98,31,40,-90,00,90,00,18,79,-86,05,89,82
7588,6,76,-1,08,-5,98,21,60,-90,00,90,00,19,21,-86,64,89,82
7604,6,76,-1,08,-9,80,21,60,-90,00,90,00,19,57,-87,15,89,82
7620,4,90,-0,20,-9,80,4,00,-90,00,73,50,17,23,-87,57,87,38
7636,4,90,-0,20,-7,35,4,00,-90,00,73,50,15,25,-87,94,85,29
7652,4,90,-1,08,-7,35,21,60,-90,00,73,50,16,20,-88,25,83,53
7668,4,90,-1,18,-8,43,23,60,-90,00,73,50,17,31,-88,51,82,02
7684,3,82,-1,18,-8,43,23,60,-90,00,57,30,18,25,-88,73,78,31
7700,3,82,-0,98,-8,72,19,60,-90,00,57,30,18,46,-88,92,75,16
7716,2,65,-0,98,-8,72,19,60,-90,00,39,75,18,63,-89,09,69,85
7732,2,65,-0,69,-8,82,13,80,-90,00,39,75,17,90,-89,22,65,33
7748,1,86,-0,69,-8,82,13,80,-90,00,27,90,17,29,-89,34,59,72
7764,-0,20,-0,10,-9,02,2,00,-90,00,-3,00,14,99,-89,44,50,31
7780,-0,20,-0,10,-9,02,2,00,-90,00,-3,00,13,05,-89,52,42,31
7796,-0,59,0,39,-10,78,-7,80,-90,00,-8,85,9,92,-89,59,34,64
7812,-0,59,0,39,-10,78,-7,80,-90,00,-8,85,7,26,-89,66,28,12
7828,-0,78,0,00,-10,49,-0,00,-90,00,-11,70,6,17,-89,71,22,14
7844,-0,78,0,00,-11,37,-0,00,-90,00,-11,70,5,25,-89,75,17,07
7860,-1,37,0,39,-11,37,-7,80,-90,00,-20,55,3,29,-89,79,11,42
7876,-1,37,0,39,-11,66,-7,80,-90,00,-20,55,1,63,-89,82,6,63
7892,-1,67,0,29,-11,66,-5,80,-90,00,-25,05,0,51,-89,82,1,88
7908,-1,67,-0,20,-6,96,4,00,-90,00,-25,05,1,04,-89,82,-2,16
7924,-1,86,-0,20,-6,96,4,00,-90,00,-27,90,1,48,-89,82,-6,02
7956,-1,86,-0,20,-6,96,4,00,-90,00,-27,90,1,86,-89,82,-9,30
7972,-4,90,-0,20,-8,43,4,00,-90,00,-73,50,2,18,-89,82,-18,93
7988,-4,90,-0,20,-8,43,4,00,-90,00,-73,50,2,45,-89,82,-27,12
8004,-4,51,0,69,-8,92,-13,80,-90,00,-67,65,0,01,-89,82,-33,20
8020,-4,51,0,69,-8,92,-13,80,-90,00,-67,65,-2,06,-89,82,-38,37
8036,-6,17,1,76,-10,00,-35,20,-90,00,-90,00,-7,03,-89,82,-46,11
8052,-6,17,1,76,-7,94,-35,20,-90,00,-90,00,-11,25,-89,82,-52,69
8068,-6,66,1,37,-7,94,-27,40,-90,00,-90,00,-13,68,-89,82,-58,29
8084,-6,66,1,37,-7,94,-27,40,-90,00,-90,00,-15,74,-89,82,-63,05
8100,-6,66,0,88,-7,94,-17,60,-90,00,-90,00,-16,01,-89,82,-67,09
8116,-6,66,0,88,-8,23,-17,60,-90,00,-90,00,-16,25,-89,82,-70,53
8132,-8,13,1,86,-8,23,-37,20,-90,00,-90,00,-19,39,-89,82,-73,45
8148,-8,13,1,67,-7,45,-33,40,-90,00,-90,00,-21,50,-89,82,-75,93
8164,-8,53,1,67,-7,45,-33,40,-90,00,-90,00,-23,28,-89,82,-78,04
8180,-8,53,0,98,-5,98,-19,60,-90,00,-90,00,-22,73,-89,82,-79,83
8196,-9,11,0,98,-5,98,-19,60,-90,00,-90,00,-22,26,-89,82,-81,36
8212,-8,53,0,78,-5,00,-15,60,-90,00,-90,00,-21,26,-89,82,-82,66
8228,-8,53,0,78,-5,00,-15,60,-90,00,-90,00,-20,41,-89,82,-83,76
8244,-8,92,0,00,-4,31,-0,00,-86,20,-90,00,-17,35,-89,28,-84,69
8260,-8,92,0,00,-4,31,-0,00,-86,20,-90,00,-14,75,-88,82,-85,49
8276,-8,82,-0,59,-4,80,11,80,-90,00,-90,00,-10,77,-88,99,-86,17
8292,-8,82,-0,59,-3,92,11,80,-78,40,-90,00,-7,38,-87,40,-86,74
8308,-8,53,-0,29,-3,92,5,80,-78,40,-90,00,-5,40,-86,05,-87,23
8339,-9,11,-0,69,-3,04,13,80,-60,80,-90,00,-2,52,-82,27,-87,65
8355,-9,11,-0,69,-3,04,13,80,-60,80,-90,00,-0,07,-79,05,-88,00
8372,-9,41,-0,49,-3,04,9,80,-60,80,-90,00,1,41,-76,31,-88,30
8388,-9,41,-0,49,-3,72,9,80,-74,40,-90,00,2,67,-76,02,-88,55
8404,-10,39,0,10,-3,72,-2,00,-74,40,-90,00,1,97,-75,78,-88,77
8420,-10,39,-0,49,-1,86,9,80,-37,20,-90,00,3,14,-69,99,-88,96
8436,-10,19,-0,49,-1,86,9,80,-37,20,-90,00,4,14,-65,07,-89,11
8452,-10,19,-0,49,-1,86,9,80,-37,20,-90,00,4,99,-60,89,-89,25
8468,-10,19,-0,49,-1,86,9,80,-37,20,-90,00,5,71,-57,34,-89,36
8484,-10,49,-0,10,-2,74,2,00,-54,80,-90,00,5,15,-56,96,-89,45
8500,-10,49,-0,10,-2,74,2,00,-54,80,-90,00,4,68,-56,63,-89,54
8516,-10,39,-0,69,-1,57,13,80,-31,40,-90,00,6,05,-52,85,-89,61
8532,-10,39,-0,69,-1,57,13,80,-31,40,-90,00,7,21,-49,63,-89,67
8548,-10,39,-0,78,-1,47,15,60,-29,40,-90,00,8,47,-46,60,-89,72
8564,-10,39,-0,78,-1,67,15,60,-33,40,-90,00,9,54,-44,62,-89,76
8580,-10,39,-0,98,-1,67,19,60,-33,40,-90,00,11,05,-42,93,-89,79
8596,-10,39,-0,98,-1,86,19,60,-37,20,-90,00,12,33,-42,07,-89,83
8612,-9,60,-1,08,-1,86,21,60,-37,20,-90,00,13,72,-41,34,-89,83
8628,-9,60,-0,78,-2,45,15,60,-49,00,-90,00,14,00,-42,49,-89,83
8644,-9,70,-0,78,-2,45,15,60,-49,00,-90,00,14,24,-43,47,-89,83
8660,-9,70,-0,88,-1,76,17,60,-35,20,-90,00,14,75,-42,23,-89,83
8676,-10,00,-0,88,-1,76,17,60,-35,20,-90,00,15,17,-41,17,-89,83
8692,-10,00,-0,88,-2,35,17,60,-47,00,-90,00,15,54,-42,05,-89,83
8708,-10,19,-0,88,-2,35,17,60,-47,00,-90,00,15,85,-42,79,-89,83
8724,-9,90,-1,47,-1,08,29,40,-21,60,-90,00,17,88,-39,61,-89,83
8755,-9,90,-1,47,-1,08,29,40,-21,60,-90,00,19,61,-36,91,-89,83
8771,-9,90,-1,47,-2,35,29,40,-47,00,-90,00,21,08,-38,42,-89,83
8787,-10,19,-0,98,-2,65,19,60,-53,00,-90,00,20,86,-40,61,-89,83
8804,-10,19,-0,98,-1,27,19,60,-25,40,-90,00,20,67,-38,33,-89,83
8820,-10,19,-1,27,-1,27,25,40,-25,40,-90,00,21,38,-36,39,-89,83
8836,-10,19,-1,27,-1,08,25,40,-21,60,-90,00,21,98,-34,17,-89,83
8852,-9,70,-1,76,-1,08,35,20,-21,60,-90,00,23,96,-32,29,-89,83
8868,-9,70,-1,08,-2,74,21,60,-54,80,-90,00,23,61,-35,66,-89,83
8884,-9,70,-1,08,-2,74,21,60,-54,80,-90,00,23,31,-38,53,-89,83
8900,-9,70,-0,88,-2,35,17,60,-47,00,-90,00,22,45,-39,80,-89,83
8916,-10,19,-0,88,-2,35,17,60,-47,00,-90,00,21,72,-40,88,-89,83
8932,-10,19,-1,18,-1,76,23,60,-35,20,-90,00,22,01,-40,03,-89,83
8948,-10,00,-1,18,-1,76,23,60,-35,20,-90,00,22,24,-39,31,-89,83
8964,-10,00,-1,18,-1,76,23,60,-35,20,-90,00,22,45,-38,69,-89,83
8980,-10,00,-1,18,-1,76,23,60,-35,20,-90,00,22,62,-38,17,-89,83
8996,-9,11,-1,96,-1,27,39,20,-25,40,-90,00,25,11,-36,25,-89,83
9012,-9,11,-1,96,-1,27,39,20,-25,40,-90,00,27,22,-34,62,-89,83
9028,-11,56,-0,10,-7,15,2,00,-90,00,-90,00,23,44,-42,93,-89,83
9044,-11,56,-0,10,-5,88,2,00,-90,00,-90,00,20,22,-49,99,-89,83
9060,-11,47,0,49,-5,88,-9,80,-90,00,-90,00,15,72,-55,99,-89,83
9076,-11,47,0,49,-0,98,-9,80,-19,60,-90,00,11,89,-50,53,-89,83
9092,-8,82,-1,67,-0,98,33,40,-19,60,-90,00,15,12,-45,89,-89,83
9108,-8,82,-1,67,-2,84,33,40,-56,80,-90,00,17,86,-47,53,-89,83
9124,-7,74,-1,67,-2,84,33,40,-56,80,-90,00,20,19,-48,92,-89,83
9155,-5,88,0,39,-8,33,-7,80,-90,00,-88,20,15,99,-55,08,-89,58
9171,-6,96,0,39,-7,94,-7,80,-90,00,-90,00,12,42,-60,32,-89,64
9187,-6,96,0,39,-7,94,-7,80,-90,00,-90,00,9,39,-64,77,-89,70
9203,-5,68,0,10,-8,04,-2,00,-90,00,-85,20,7,68,-68,56,-89,02
9219,-5,68,0,10,-8,04,-2,00,-90,00,-85,20,6,23,-71,77,-88,45
9235,-2,45,-1,18,-8,04,23,60,-90,00,-36,75,8,83,-74,51,-80,69
9251,-2,45,-1,18,-8,04,23,60,-90,00,-36,75,11,05,-76,83,-74,10
9267,-1,96,-0,78,-8,53,15,60,-90,00,-29,40,11,73,-78,81,-67,40
9283,-1,96,-0,78,-11,17,15,60,-90,00,-29,40,12,31,-80,49,-61,70
9299,-2,65,0,29,-11,17,-5,80,-90,00,-39,75,9,60,-81,91,-58,41
9315,-2,65,0,29,-11,07,-5,80,-90,00,-39,75,7,29,-83,13,-55,61
9331,-1,67,0,00,-11,07,-0,00,-90,00,-25,05,6,19,-84,16,-51,02
9347,-1,67,-0,20,-10,29,4,00,-90,00,-25,05,5,86,-85,03,-47,13
9363,-1,27,-0,20,-10,29,4,00,-90,00,-19,05,5,58,-85,78,-42,92
9379,-1,27,-0,98,-9,90,19,60,-90,00,-19,05,7,69,-86,41,-39,34
9395,0,29,-0,98,-9,90,19,60,-90,00,4,35,9,47,-86,95,-32,78
9411,0,29,-0,59,-10,78,11,80,-90,00,4,35,9,82,-87,41,-27,21
9427,0,29,-0,59,-10,78,11,80,-90,00,4,35,10,12,-87,80,-22,48
9444,0,29,-0,59,-10,78,11,80,-90,00,4,35,10,37,-88,13,-18,45
9460,0,29,-0,59,-10,78,11,80,-90,00,4,35,10,59,-88,41,-15,03
9476,1,96,-1,18,-11,07,23,60,-90,00,29,40,12,54,-88,65,-8,37
9492,1,96,-1,18,-11,07,23,60,-90,00,29,40,14,20,-88,85,-2,70
9508,3,23,-1,18,-10,68,23,60,-90,00,48,45,15,61,-89,02,4,97
9524,3,23,-1,18,-11,56,23,60,-90,00,48,45,16,81,-89,17,11,49
9556,2,74,0,39,-10,49,-7,80,-90,00,41,10,13,12,-89,29,15,93
9572,3,04,0,20,-10,49,-4,00,-90,00,45,60,10,55,-89,40,20,38
9588,3,04,-0,29,-9,11,5,80,-90,00,45,60,9,84,-89,49,24,17
9604,3,72,-0,29,-9,11,5,80,-90,00,55,80,9,23,-89,57,28,91
9620,3,72,-0,39,-7,74,7,80,-90,00,55,80,9,02,-89,63,32,94
9636,4,61,-0,39,-7,74,7,80,-90,00,69,15,8,83,-89,69,38,37
9652,4,61,-0,29,-7,84,5,80,-90,00,69,15,8,38,-89,73,42,99
9668,6,37,-0,29,-7,84,5,80,-90,00,90,00,7,99,-89,77,50,04
9684,7,06,0,20,-8,13,-4,00,-90,00,90,00,6,19,-89,81,56,04
9700,7,06,0,20,-8,13,-4,00,-90,00,90,00,4,66,-89,81,61,13
9716,7,06,-0,98,-5,49,19,60,-90,00,90,00,6,90,-89,81,65,46
9732,7,06,-0,98,-5,49,19,60,-90,00,90,00,8,81,-89,81,69,14
9748,7,45,-0,88,-6,37,17,60,-90,00,90,00,10,13,-89,81,72,27
9764,7,45,-0,88,-6,96,17,60,-90,00,90,00,11,25,-89,81,74,93
9780,7,74,-0,59,-6,96,11,80,-90,00,90,00,11,33,-89,81,77,19
9796,7,74,-0,59,-5,39,11,80,-90,00,90,00,11,40,-89,81,79,11
9812,7,84,-1,18,-5,39,23,60,-90,00,90,00,13,23,-89,81,80,75
9828,7,84,-0,98,-4,80,19,60,-90,00,90,00,14,19,-89,81,82,13
9844,8,53,-0,98,-4,80,19,60,-90,00,90,00,15,00,-89,81,83,31
9860,8,53,-0,29,-5,49,5,80,-90,00,90,00,13,62,-89,81,84,32
9876,9,70,-0,29,-5,49,5,80,-90,00,90,00,12,45,-89,81,85,17
9892,9,70,-0,10,-5,10,2,00,-90,00,90,00,10,88,-89,81,85,89
9908,9,90,-0,10,-5,10,2,00,-90,00,90,00,9,55,-89,81,86,51
9924,9,60,-0,10,-4,12,2,00,-82,40,90,00,8,42,-88,70,87,03
9940,9,60,-0,10,-4,12,2,00,-82,40,90,00,7,45,-87,75,87,48
9972,9,60,-0,10,-3,23,2,00,-64,60,90,00,6,63,-84,28,87,86
9988,10,00,-0,10,-3,23,2,00,-64,60,90,00,5,94,-81,33,88,18
10004,10,00,-0,10,-3,43,2,00,-68,60,90,00,5,35,-79,42,88,45
10020,10,19,0,00,-3,43,-0,00,-68,60,90,00,4,55,-77,80,88,68
10040,10,19,-0,20,-2,16,4,00,-43,20,90,00,4,46,-72,61,88,88
10057,10,49,-0,20,-2,16,4,00,-43,20,90,00,4,39,-68,20,89,05
10073,10,39,-0,29,-2,25,5,80,-45,00,90,00,4,61,-64,72,89,19
10090,10,39,-0,29,-2,25,5,80,-45,00,90,00,4,78,-61,76,89,31
10106,10,19,-0,20,-1,76,4,00,-35,20,90,00,4,67,-57,77,89,42
10123,10,19,-0,20,-1,08,4,00,-21,60,90,00,4,57,-52,35,89,50
10140,9,90,-0,49,-1,08,9,80,-21,60,90,00,5,35,-47,74,89,58
10156,9,90,-0,49,-1,08,9,80,-21,60,90,00,6,02,-43,82,89,64
10173,10,00,-0,49,-1,08,9,80,-21,60,90,00,6,59,-40,48,89,70
10190,10,00,-0,10,-1,08,2,00,-21,60,90,00,5,90,-37,65,89,74
10206,10,39,-0,10,-1,08,2,00,-21,60,90,00,5,31,-35,24,89,78
10223,10,39,-0,39,-0,29,7,80,-5,80,90,00,5,69,-30,83,89,81
10240,10,39,-0,39,-0,29,7,80,-5,80,90,00,6,00,-27,07,89,81
10257,10,39,-0,29,0,39,5,80,7,80,90,00,5,97,-21,84,89,81
10273,10,39,-0,29,0,20,5,80,4,00,90,00,5,97,-17,97,89,81
10290,10,39,0,00,0,20,-0,00,4,00,90,00,5,08,-14,67,89,81
10306,10,39,0,00,0,78,-0,00,15,60,90,00,4,32,-10,13,89,81
10323,10,49,0,20,0,78,-4,00,15,60,90,00,3,07,-6,27,89,81
10339,10,49,0,20,0,98,-4,00,19,60,90,00,2,01,-2,39,89,81
10356,10,78,0,20,0,98,-4,00,19,60,90,00,1,11,0,91,89,81
10372,11,07,0,59,0,88,-11,80,17,60,90,00,-0,83,3,41,89,81
10388,11,07,0,59,0,88,-11,80,17,60,90,00,-2,47,5,54,89,81
10404,10,78,0,39,1,18,-7,80,23,60,90,00,-3,27,8,25,89,81
10420,10,78,0,39,1,18,-7,80,23,60,90,00,-3,95,10,55,89,81
10436,10,19,0,00,1,47,-0,00,29,40,90,00,-3,36,13,38,89,81
10452,10,19,0,00,1,47,-0,00,29,40,90,00,-2,86,15,78,89,81
10473,10,19,0,00,1,47,-0,00,29,40,90,00,-2,43,17,82,89,81
10489,10,19,0,29,0,59,-5,80,11,80,90,00,-2,93,16,92,89,81
10506,10,49,0,29,0,59,-5,80,11,80,90,00,-3,36,16,15,89,81
10523,10,39,0,00,1,67,-0,00,33,40,90,00,-2,86,18,74,89,81
10539,10,39,0,00,1,67,-0,00,33,40,90,00,-2,43,20,94,89,81
10556,10,49,-0,10,1,57,2,00,31,40,90,00,-1,77,22,51,89,81
10573,10,49,-0,10,0,49,2,00,9,80,90,00,-1,20,20,60,89,81
10590,11,27,0,59,0,49,-11,80,9,80,90,00,-2,79,18,98,89,81
10606,11,27,0,59,1,18,-11,80,23,60,90,00,-4,14,19,67,89,81
10623,10,78,0,88,1,18,-17,60,23,60,90,00,-6,16,20,26,89,81
10640,10,78,0,10,2,06,-2,00,41,20,90,00,-5,54,23,40,89,81
10656,10,49,0,10,2,06,-2,00,41,20,90,00,-5,01,26,07,89,81
10673,10,98,0,29,0,39,-5,80,7,80,90,00,-5,13,23,33,89,81
10690,10,98,0,29,0,39,-5,80,7,80,90,00,-5,23,21,00,89,81
10706,11,07,0,20,0,20,-4,00,4,00,90,00,-5,04,18,45,89,81
10723,11,07,0,20,1,27,-4,00,25,40,90,00,-4,89,19,49,89,81
10740,10,68,-0,88,1,27,17,60,25,40,90,00,-1,51,20,38,89,81
10756,10,68,-0,88,-1,47,17,60,-29,40,90,00,1,35,12,91,89,81
10772,11,76,0,20,-1,47,-4,00,-29,40,90,00,0,55,6,57,89,81
10788,11,76,1,86,-4,12,-37,20,-82,40,90,00,-5,11,-6,78,89,81
10804,12,35,1,86,-4,12,-37,20,-82,40,90,00,-9,93,-18,12,89,81
10820,12,35,-0,49,-0,59,9,80,-11,80,90,00,-6,97,-17,17,89,81
10836,10,19,-0,49,-0,59,9,80,-11,80,90,00,-4,45,-16,37,89,81
10860,7,55,-2,06,-1,37,41,20,-27,40,90,00,2,40,-18,02,89,81
10876,7,55,-2,06,-5,88,41,20,-90,00,90,00,8,22,-28,82,89,81
10892,8,82,-0,69,-5,88,13,80,-90,00,90,00,9,05,-38,00,89,81
10908,8,82,-2,25,-5,68,45,00,-90,00,90,00,14,45,-45,80,89,81
10924,6,17,-2,25,-5,68,45,00,-90,00,90,00,19,03,-52,43,89,81
10940,6,17,-2,25,-5,68,45,00,-90,00,90,00,22,92,-58,06,89,81
10956,6,17,-2,25,-5,68,45,00,-90,00,90,00,26,24,-62,85,89,81
10973,5,68,-2,65,-5,00,53,00,-90,00,85,20,30,25,-66,93,89,12
10990,5,68,-2,65,-5,00,53,00,-90,00,85,20,33,66,-70,39,88,53
11006,3,23,-2,74,-8,72,54,80,-90,00,48,45,36,83,-73,33,82,52
11023,3,23,-2,74,-10,39,54,80,-90,00,48,45,39,53,-75,83,77,41
11044,3,43,-1,57,-10,39,31,40,-90,00,51,45,38,31,-77,96,73,52
11060,3,43,-0,69,-9,51,13,80,-90,00,51,45,34,63,-79,76,70,21
11075,5,10,-0,69,-9,51,13,80,-90,00,76,50,31,51,-81,30,71,15
11091,5,10,-0,29,-9,51,5,80,-90,00,76,50,27,65,-82,60,71,95
11107,4,51,-0,29,-9,51,5,80,-90,00,67,65,24,37,-83,71,71,31
11123,3,43,-0,20,-10,29,4,00,-90,00,51,45,21,32,-84,66,68,33
11139,3,43,-0,20,-10,29,4,00,-90,00,51,45,18,72,-85,46,65,80
11156,3,23,-0,69,-10,00,13,80,-90,00,48,45,17,98,-86,14,63,19
11172,3,23,-0,69,-10,00,13,80,-90,00,48,45,17,35,-86,72,60,98
11188,3,43,0,00,-10,29,-0,00,-90,00,51,45,14,75,-87,21,59,55
11204,3,43,0,00,-10,39,-0,00,-90,00,51,45,12,54,-87,63,58,34
11220,3,04,-0,10,-10,39,2,00,-90,00,45,60,10,96,-87,98,56,43
11236,3,04,-0,10,-9,70,2,00,-90,00,45,60,9,61,-88,29,54,80
11252,1,96,-0,98,-9,70,19,60,-90,00,29,40,11,11,-88,54,50,99
11268,1,96,-0,88,-10,00,17,60,-90,00,29,40,12,09,-88,76,47,75
11284,1,86,-0,88,-10,00,17,60,-90,00,27,90,12,91,-88,95,44,78
11300,1,86,-0,69,-10,19,13,80,-90,00,27,90,13,05,-89,11,42,24
11316,1,96,-0,69,-10,19,13,80,-90,00,29,40,13,16,-89,24,40,32
11332,1,96,-0,20,-11,86,4,00,-90,00,29,40,11,79,-89,35,38,68
11348,1,96,-0,20,-11,86,4,00,-90,00,29,40,10,62,-89,45,37,29
11364,1,96,-0,49,-12,84,9,80,-90,00,29,40,10,49,-89,53,36,10
11380,1,96,-0,49,-12,84,9,80,-90,00,29,40,10,39,-89,60,35,10
11396,1,67,-1,08,-10,78,21,60,-90,00,25,05,12,07,-89,66,33,59
11412,1,67,-1,08,-10,78,21,60,-90,00,25,05,13,50,-89,71,32,31
11428,1,37,-0,98,-12,05,19,60,-90,00,20,55,14,42,-89,76,30,55
11444,1,37,-0,98,-12,05,19,60,-90,00,20,55,15,19,-89,79,29,05
11460,1,37,-0,98,-12,05,19,60,-90,00,20,55,15,85,-89,82,27,77
11476,1,37,-0,98,-11,47,19,60,-90,00,20,55,16,42,-89,82,26,69
11492,2,45,-1,27,-11,47,25,40,-90,00,36,75,17,76,-89,82,28,20
11508,2,45,-2,45,-11,27,49,00,-90,00,36,75,22,45,-89,82,29,48
11524,1,96,-2,45,-11,27,49,00,-90,00,29,40,26,43,-89,82,29,48
11540,1,96,-3,14,-9,02,62,80,-90,00,29,40,31,89,-89,82,29,48
11571,0,29,-4,90,-7,15,90,00,-90,00,4,35,40,60,-89,82,25,71
11587,0,29,-4,90,-7,15,90,00,-90,00,4,35,48,01,-89,82,22,51
11603,0,20,-6,17,-6,37,90,00,-90,00,3,00,54,31,-89,82,19,58
11619,0,20,-6,17,-6,37,90,00,-90,00,3,00,59,66,-89,82,17,09
11639,0,20,-6,86,-5,49,90,00,-90,00,3,00,64,22,-89,82,14,98
11656,0,20,-6,86,-5,98,90,00,-90,00,3,00,68,08,-89,82,13,18
11672,-0,29,-7,06,-5,98,90,00,-90,00,-4,35,71,37,-89,82,10,55
11689,-0,29,-7,35,-5,19,90,00,-90,00,-4,35,74,16,-89,82,8,32
11706,0,59,-7,35,-5,19,90,00,-90,00,8,85,76,54,-89,82,8,40
11723,-0,29,-8,13,-3,23,90,00,-64,60,-4,35,78,56,-86,04,6,49
11739,-0,29,-8,13,-3,23,90,00,-64,60,-4,35,80,28,-82,82,4,86
11756,0,20,-8,43,-1,67,90,00,-33,40,3,00,81,73,-75,41,4,58
11773,0,20,-8,43,-0,78,90,00,-15,60,3,00,82,97,-66,44,4,34
11789,-0,49,-9,02,-0,78,90,00,-15,60,-7,35,84,03,-58,81,2,59
11806,-0,49,-9,02,0,98,90,00,19,60,-7,35,84,92,-47,05,1,10
11822,-0,20,-9,11,0,98,90,00,19,60,-3,00,85,69,-37,05,0,48
11839,-0,20,-9,51,1,96,90,00,39,20,-3,00,86,33,-25,62,-0,04
11856,-0,20,-9,51,1,96,90,00,39,20,-3,00,86,88,-15,89,-0,48
11872,-0,29,-9,90,2,65,90,00,53,00,-4,35,87,35,-5,56,-1,06
11889,-0,29,-9,90,2,65,90,00,53,00,-4,35,87,75,3,22,-1,56
11906,-0,59,-9,80,3,23,90,00,64,60,-8,85,88,09,12,43,-2,65
11922,-0,59,-9,80,3,23,90,00,64,60,-8,85,88,37,20,26,-3,58
11939,-0,49,-10,00,4,31,90,00,86,20,-7,35,88,62,30,15,-4,15
11956,-0,49,-10,00,4,31,90,00,86,20,-7,35,88,82,38,56,-4,63
11972,-0,49,-10,00,4,31,90,00,86,20,-7,35,89,00,45,70,-5,03
11988,-0,49,-10,29,3,82,90,00,76,40,-7,35,89,15,50,31,-5,38
12004,-0,78,-10,29,3,82,90,00,76,40,-11,70,89,28,54,22,-6,33
12020,-0,78,-9,90,2,65,90,00,53,00,-11,70,89,39,54,04,-7,14
12036,-0,59,-9,90,2,65,90,00,53,00,-8,85,89,48,53,88,-7,39
12052,-0,59,-8,82,-0,10,90,00,-2,00,-8,85,89,56,45,50,-7,61
12068,-0,49,-8,82,-0,10,90,00,-2,00,-7,35,89,62,38,37,-7,57
12084,-1,08,-9,31,0,00,90,00,0,00,-16,20,89,68,32,62,-8,87
12100,-1,08,-9,31,0,00,90,00,0,00,-16,20,89,73,27,73,-9,97
12116,-1,86,-10,00,0,69,90,00,13,80,-27,90,89,77,25,64,-12,66
12132,-1,86,-10,00,0,69,90,00,13,80,-27,90,89,80,23,86,-14,94
12148,-0,49,-9,41,-1,47,90,00,-29,40,-7,35,89,80,15,87,-13,80
12164,-0,49,-9,41,-3,04,90,00,-60,80,-7,35,89,80,4,37,-12,84
12180,-0,29,-8,72,-3,04,90,00,-60,80,-4,35,89,80,-5,40,-11,56
12196,-0,29,-8,72,-4,61,90,00,-90,00,-4,35,89,80,-18,09,-10,48
12212,-0,20,-8,43,-4,61,90,00,-90,00,-3,00,89,80,-28,88,-9,36
12228,-0,20,-8,62,-4,80,90,00,-90,00,-3,00,89,80,-38,05,-8,41
12244,-0,20,-8,62,-4,80,90,00,-90,00,-3,00,89,80,-45,84,-7,59
12260,-0,20,-7,94,-6,86,90,00,-90,00,-3,00,89,80,-52,46,-6,91
12276,0,20,-7,94,-6,86,90,00,-90,00,3,00,89,80,-58,09,-5,42
12292,0,20,-7,84,-5,00,90,00,-90,00,3,00,89,80,-62,88,-4,16
12308,0,29,-7,84,-5,00,90,00,-90,00,4,35,89,80,-66,95,-2,88
12339,-0,29,-8,62,-3,43,90,00,-68,60,-4,35,89,80,-67,20,-3,10
12356,0,20,-7,55,-5,10,90,00,-90,00,3,00,89,80,-70,62,-2,19
12372,0,20,-7,55,-5,10,90,00,-90,00,3,00,89,80,-73,52,-1,41
12388,0,88,-4,70,-6,57,90,00,-90,00,13,20,89,80,-76,00,0,78
12406,0,88,-4,70,-6,76,90,00,-90,00,13,20,89,80,-78,10,2,65
12422,0,29,-4,41,-6,76,88,20,-90,00,4,35,89,56,-79,88,2,90
12439,0,29,-4,41,-6,76,88,20,-90,00,4,35,89,36,-81,40,3,12
12456,0,29,-4,41,-6,76,88,20,-90,00,4,35,89,18,-82,69,3,30
12473,0,29,-3,23,-11,17,64,60,-90,00,4,35,85,50,-83,79,3,46
12490,0,29,-3,23,-11,17,64,60,-90,00,4,35,82,36,-84,72,3,59
12506,0,78,-2,55,-12,05,51,00,-90,00,11,70,77,66,-85,51,4,81
12523,0,78,-2,55,-9,90,51,00,-90,00,11,70,73,66,-86,18,5,84
12540,0,49,-2,35,-9,90,47,00,-90,00,7,35,69,66,-86,76,6,07
12556,0,49,-2,35,-10,00,47,00,-90,00,7,35,66,26,-87,24,6,26
12573,0,49,-2,06,-10,00,41,20,-90,00,7,35,62,50,-87,66,6,42
12590,0,49,-1,67,-11,47,33,40,-90,00,7,35,58,14,-88,01,6,56
12606,0,59,-1,67,-11,47,33,40,-90,00,8,85,54,43,-88,31,6,91
12623,0,20,-0,98,-11,76,19,60,-90,00,3,00,49,20,-88,56,6,32
12640,0,20,-0,98,-11,76,19,60,-90,00,3,00,44,76,-88,78,5,82
12656,0,29,-0,78,-10,78,15,60,-90,00,4,35,40,39,-88,96,5,60
12673,0,29,-0,78,-11,86,15,60,-90,00,4,35,36,67,-89,12,5,41
12690,0,20,-0,69,-11,86,13,80,-90,00,3,00,33,24,-89,25,5,05
12706,0,20,-0,69,-11,47,13,80,-90,00,3,00,30,32,-89,36,4,74
12723,0,78,-0,49,-11,47,9,80,-90,00,11,70,27,24,-89,46,5,79
12739,0,78,-0,49,-11,47,9,80,-90,00,11,70,24,63,-89,54,6,67
12756,0,78,-0,49,-11,47,9,80,-90,00,11,70,22,40,-89,61,7,43
12772,0,78,-0,49,-9,31,9,80,-90,00,11,70,20,51,-89,67,8,07
12788,0,20,-0,49,-9,31,9,80,-90,00,3,00,18,91,-89,72,7,31
12804,-0,49,-0,88,-8,82,17,60,-90,00,-7,35,18,71,-89,76,5,11
12820,-0,49,-0,88,-8,82,17,60,-90,00,-7,35,18,54,-89,80,3,24
12836,0,29,-0,10,-10,39,2,00,-90,00,4,35,16,06,-89,83,3,41
12852,0,29,-0,10,-10,39,2,00,-90,00,4,35,13,95,-89,83,3,55
12868,0,78,0,39,-12,15,-7,80,-90,00,11,70,10,69,-89,83,4,77
12884,0,78,0,39,-11,76,-7,80,-90,00,11,70,7,92,-89,83,5,81
12900,0,49,0,00,-11,76,-0,00,-90,00,7,35,6,73,-89,83,6,04
12916,0,49,0,00,-8,72,-0,00,-90,00,7,35,5,72,-89,83,6,24
12932,0,20,0,49,-8,72,-9,80,-90,00,3,00,3,39,-89,83,5,75
12948,0,20,0,49,-8,72,-9,80,-90,00,3,00,1,41,-89,83,5,34
12964,0,20,0,49,-8,72,-9,80,-90,00,3,00,-0,27,-89,83,4,99
12980,0,20,0,39,-9,31,-7,80,-90,00,3,00,-1,40,-89,83,4,69
12996,-0,20,0,39,-9,31,-7,80,-90,00,-3,00,-2,36,-89,83,3,54
13012,0,49,0,39,-10,78,-7,80,-90,00,7,35,-3,18,-89,83,4,11
13028,0,49,0,39,-10,78,-7,80,-90,00,7,35,-3,87,-89,83,4,59
13044,0,00,0,49,-9,21,-9,80,-90,00,0,00,-4,76,-89,83,3,91
13060,0,00,0,49,-9,21,-9,80,-90,00,0,00,-5,51,-89,83,3,32
13076,-0,20,0,59,-8,62,-11,80,-90,00,-3,00,-6,46,-89,83,2,37
13106,0,20,1,08,-10,39,-21,60,-90,00,3,00,-8,73,-89,83,2,47
13122,0,20,1,08,-10,29,-21,60,-90,00,3,00,-10,66,-89,83,2,55
13139,0,29,1,18,-10,29,-23,60,-90,00,4,35,-12,60,-89,83,2,82
13155,0,29,1,18,-10,39,-23,60,-90,00,4,35,-14,25,-89,83,3,05
13171,-0,88,0,88,-10,39,-17,60,-90,00,-13,20,-14,75,-89,83,0,61
13187,-0,88,1,27,-9,60,-25,40,-90,00,-13,20,-16,35,-89,83,-1,46
13203,-0,49,1,27,-9,60,-25,40,-90,00,-7,35,-17,71,-89,83,-2,34
13219,-0,49,1,27,-10,00,-25,40,-90,00,-7,35,-18,86,-89,83,-3,10
13236,-0,88,1,27,-10,00,-25,40,-90,00,-13,20,-19,84,-89,83,-4,61
13252,-0,88,2,65,-9,11,-53,00,-90,00,-13,20,-24,82,-89,83,-5,90
13268,-0,88,2,65,-9,11,-53,00,-90,00,-13,20,-29,04,-89,83,-6,99
13284,-0,88,3,04,-7,94,-60,80,-90,00,-13,20,-33,81,-89,83,-7,93
13300,-0,88,3,04,-7,94,-60,80,-90,00,-13,20,-37,86,-89,83,-8,72
13316,-0,29,3,14,-10,49,-62,80,-90,00,-4,35,-41,60,-89,83,-8,06
13332,-0,29,3,14,-10,49,-62,80,-90,00,-4,35,-44,78,-89,83,-7,50
13348,0,59,1,96,-10,98,-39,20,-90,00,8,85,-43,94,-89,83,-5,05
13364,0,59,1,96,-10,09,-39,20,-90,00,8,85,-43,23,-89,83,-2,97
13380,0,59,1,86,-10,09,-37,20,-90,00,8,85,-42,33,-89,83,-1,19
13396,0,59,1,86,-9,31,-37,20,-90,00,8,85,-41,56,-89,83,0,31
13412,-0,29,1,57,-9,31,-31,40,-90,00,-4,35,-40,03,-89,83,-0,39
13428,-0,29,1,57,-9,31,-31,40,-90,00,-4,35,-38,74,-89,83,-0,98
13444,-0,29,1,57,-9,31,-31,40,-90,00,-4,35,-37,64,-89,83,-1,49
13460,-0,29,2,45,-10,58,-49,00,-90,00,-4,35,-39,34,-89,83,-1,92
13476,-0,29,2,45,-10,58,-49,00,-90,00,-4,35,-40,79,-89,83,-2,28
13492,-0,29,2,74,-10,98,-54,80,-90,00,-4,35,-42,89,-89,83,-2,59
13508,-0,29,2,74,-10,98,-54,80,-90,00,-4,35,-44,68,-89,83,-2,86
13524,-1,27,2,25,-8,92,-45,00,-90,00,-19,05,-44,73,-89,83,-5,28
13540,-1,27,2,25,-8,92,-45,00,-90,00,-19,05,-44,77,-89,83,-7,35
13572,-1,27,2,16,-9,02,-43,20,-90,00,-19,05,-44,53,-89,83,-9,10
13588,0,20,2,65,-11,27,-53,00,-90,00,3,00,-45,80,-89,83,-7,29
13604,0,20,2,65,-10,00,-53,00,-90,00,3,00,-46,88,-89,83,-5,75
13620,0,49,2,35,-10,00,-47,00,-90,00,7,35,-46,88,-89,83,-3,78
13636,0,49,2,35,-9,80,-47,00,-90,00,7,35,-46,88,-89,83,-2,11
13652,0,29,1,96,-9,80,-39,20,-90,00,4,35,-45,73,-89,83,-1,14
13668,0,29,2,06,-9,41,-41,20,-90,00,4,35,-45,05,-89,83,-0,32
13684,0,29,2,06,-9,41,-41,20,-90,00,4,35,-44,47,-89,83,0,38
13700,0,29,2,25,-9,21,-45,00,-90,00,4,35,-44,55,-89,83,0,98
13716,-0,20,2,25,-9,21,-45,00,-90,00,-3,00,-44,62,-89,83,0,38
13732,-0,20,2,55,-10,19,-51,00,-90,00,-3,00,-45,58,-89,83,-0,13
13748,-0,59,2,55,-10,19,-51,00,-90,00,-8,85,-46,39,-89,83,-1,44
13764,0,00,2,74,-10,39,-54,80,-90,00,0,00,-47,65,-89,83,-1,22
13780,0,00,2,74,-10,39,-54,80,-90,00,0,00,-48,72,-89,83,-1,04
13796,-0,29,2,74,-11,17,-54,80,-90,00,-4,35,-49,64,-89,83,-1,53
13812,-0,29,2,74,-11,17,-54,80,-90,00,-4,35,-50,41,-89,83,-1,96
13828,0,20,2,74,-10,78,-54,80,-90,00,3,00,-51,07,-89,83,-1,21
13844,0,20,2,74,-10,09,-54,80,-90,00,3,00,-51,63,-89,83,-0,58
13860,-0,20,2,45,-10,09,-49,00,-90,00,-3,00,-51,23,-89,83,-0,94
13876,-0,20,2,45,-8,04,-49,00,-90,00,-3,00,-50,90,-89,83,-1,25
13892,-1,08,2,16,-8,04,-43,20,-90,00,-16,20,-49,74,-89,83,-3,49
13908,-1,08,1,96,-8,43,-39,20,-90,00,-16,20,-48,16,-89,83,-5,40
13924,-1,96,1,96,-8,43,-39,20,-90,00,-29,40,-46,82,-89,83,-9,00
13940,-1,96,1,96,-8,43,-39,20,-90,00,-29,40,-45,68,-89,83,-12,06
13956,-1,96,1,96,-8,43,-39,20,-90,00,-29,40,-44,70,-89,83,-14,66
13987,-1,57,1,96,-9,02,-39,20,-90,00,-23,55,-43,88,-89,83,-15,99
14003,-0,29,2,65,-10,09,-53,00,-90,00,-4,35,-45,25,-89,83,-14,25
14019,-0,29,2,65,-10,09,-53,00,-90,00,-4,35,-46,41,-89,83,-12,76
14035,-1,57,2,55,-10,49,-51,00,-90,00,-23,55,-47,10,-89,83,-14,38
14051,-1,57,2,55,-10,49,-51,00,-90,00,-23,55,-47,68,-89,83,-15,76
14068,-1,37,2,65,-11,07,-53,00,-90,00,-20,55,-48,48,-89,83,-16,48
14084,-1,37,2,65,-10,39,-53,00,-90,00,-20,55,-49,16,-89,83,-17,09
14100,-1,86,2,74,-10,39,-54,80,-90,00,-27,90,-50,00,-89,83,-18,71
14116,-1,86,2,74,-10,09,-54,80,-90,00,-27,90,-50,72,-89,83,-20,09
14132,-1,37,2,65,-10,09,-53,00,-90,00,-20,55,-51,07,-89,83,-20,16
14148,-1,37,2,65,-10,09,-53,00,-90,00,-20,55,-51,36,-89,83,-20,22
14164,0,00,2,65,-10,09,-53,00,-90,00,0,00,-51,60,-89,83,-17,18
14180,0,00,1,96,-9,80,-39,20,-90,00,0,00,-49,74,-89,83,-14,61
14196,-0,49,1,96,-9,80,-39,20,-90,00,-7,35,-48,16,-89,83,-13,52
14212,-0,49,1,37,-9,51,-27,40,-90,00,-7,35,-45,05,-89,83,-12,59
14228,-1,67,1,37,-9,51,-27,40,-90,00,-25,05,-42,40,-89,83,-14,46
14244,-1,08,0,49,-8,72,-9,80,-90,00,-16,20,-37,51,-89,83,-14,72
14260,-1,08,0,49,-8,72,-9,80,-90,00,-16,20,-33,35,-89,83,-14,94
14276,-0,88,0,10,-8,53,-2,00,-90,00,-13,20,-28,65,-89,83,-14,68
14292,-0,88,0,10,-8,53,-2,00,-90,00,-13,20,-24,65,-89,83,-14,46
14308,-1,27,-0,49,-10,29,9,80,-90,00,-19,05,-19,48,-89,83,-15,15
14324,-1,27,-0,49,-10,58,9,80,-90,00,-19,05,-15,09,-89,83,-15,73
14340,-1,27,-0,20,-10,58,4,00,-90,00,-19,05,-12,23,-89,83,-16,23
14371,-1,57,0,00,-10,09,-0,00,-90,00,-23,55,-10,39,-89,83,-17,33
14388,-1,57,-0,59,-9,90,11,80,-90,00,-23,55,-7,06,-89,83,-18,26
14404,-1,08,-0,59,-9,90,11,80,-90,00,-16,20,-4,24,-89,83,-17,95
14420,-1,08,-0,78,-9,70,15,60,-90,00,-16,20,-1,26,-89,83,-17,69
14436,-0,29,-0,78,-9,70,15,60,-90,00,-4,35,1,27,-89,83,-15,69
14452,-0,29,-0,78,-9,70,15,60,-90,00,-4,35,3,42,-89,83,-13,99
14468,-0,29,-0,78,-9,70,15,60,-90,00,-4,35,5,25,-89,83,-12,54
14484,-0,78,-0,39,-10,58,7,80,-90,00,-11,70,5,63,-89,83,-12,42
14500,-0,78,-0,39,-10,58,7,80,-90,00,-11,70,5,95,-89,83,-12,31
14516,-1,67,-0,59,-11,37,11,80,-90,00,-25,05,6,83,-89,83,-14,22
14532,-1,67,-0,59,-11,37,11,80,-90,00,-25,05,7,58,-89,83,-15,84
14548,-2,65,-0,78,-10,58,15,60,-90,00,-39,75,8,78,-89,83,-19,43
14564,-2,65,-0,78,-10,00,15,60,-90,00,-39,75,9,80,-89,83,-22,48
14580,-1,86,-0,69,-10,00,13,80,-90,00,-27,90,10,40,-89,83,-23,29
14596,-1,86,-0,69,-9,51,13,80,-90,00,-27,90,10,91,-89,83,-23,98
14612,-0,88,-0,49,-9,51,9,80,-90,00,-13,20,10,75,-89,83,-22,37
14628,-0,88,0,29,-9,41,-5,80,-90,00,-13,20,8,26,-89,83,-20,99
14644,-0,59,0,29,-9,41,-5,80,-90,00,-8,85,6,15,-89,83,-19,17
14660,-0,59,0,29,-9,41,-5,80,-90,00,-8,85,4,36,-89,83,-17,62
14676,-0,59,0,29,-9,41,-5,80,-90,00,-8,85,2,84,-89,83,-16,31
14692,0,00,0,59,-10,39,-11,80,-90,00,0,00,0,64,-89,83,-13,86
14708,0,00,0,59,-10,39,-11,80,-90,00,0,00,-1,22,-89,83,-11,78
14724,0,20,1,08,-10,39,-21,60,-90,00,3,00,-4,28,-89,83,-9,56
14755,0,00,1,27,-10,39,-25,40,-90,00,0,00,-7,45,-89,83,-8,13
14772,0,00,1,27,-10,39,-25,40,-90,00,0,00,-10,14,-89,83,-6,91
14789,-0,49,1,37,-9,51,-27,40,-90,00,-7,35,-12,73,-89,83,-6,98
14807,-0,49,1,37,-9,90,-27,40,-90,00,-7,35,-14,93,-89,83,-7,03
14823,0,00,1,47,-9,90,-29,40,-90,00,0,00,-17,10,-89,83,-5,98
14840,0,00,2,16,-10,09,-43,20,-90,00,0,00,-21,02,-89,83,-5,08
14856,0,20,2,16,-10,09,-43,20,-90,00,3,00,-24,34,-89,83,-3,87
14873,1,08,2,55,-9,80,-51,00,-90,00,16,20,-28,34,-89,83,-0,86
14889,1,08,2,55,-9,80,-51,00,-90,00,16,20,-31,74,-89,83,1,70
14905,1,27,3,14,-10,49,-62,80,-90,00,19,05,-36,40,-89,83,4,30
14922,1,27,3,14,-10,49,-62,80,-90,00,19,05,-40,36,-89,83,6,51
14939,1,37,2,74,-9,80,-54,80,-90,00,20,55,-42,53,-89,83,8,62
14955,1,37,2,74,-9,80,-54,80,-90,00,20,55,-44,37,-89,83,10,41
14972,1,37,2,74,-9,80,-54,80,-90,00,20,55,-45,93,-89,83,11,93
14989,1,37,2,45,-9,41,-49,00,-90,00,20,55,-46,39,-89,83,13,22
15005,1,37,2,45,-9,41,-49,00,-90,00,20,55,-46,78,-89,83,14,32
15022,0,88,1,27,-9,02,-25,40,-90,00,13,20,-43,58,-89,83,14,15
15039,0,88,1,27,-9,02,-25,40,-90,00,13,20,-40,85,-89,83,14,01
15055,1,08,1,67,-9,51,-33,40,-90,00,16,20,-39,73,-89,83,14,34
15072,1,08,1,67,-9,80,-33,40,-90,00,16,20,-38,78,-89,83,14,62
15089,0,88,1,57,-9,80,-31,40,-90,00,13,20,-37,67,-89,83,14,41
15105,0,88,1,57,-9,41,-31,40,-90,00,13,20,-36,73,-89,83,14,22
15123,0,29,2,94,-9,41,-58,80,-90,00,4,35,-40,04,-89,83,12,74
15139,0,29,3,04,-9,60,-60,80,-90,00,4,35,-43,16,-89,83,11,48
15155,0,78,3,04,-9,60,-60,80,-90,00,11,70,-45,80,-89,83,11,52
15172,0,78,3,33,-9,51,-66,60,-90,00,11,70,-48,92,-89,83,11,52
15188,1,37,3,33,-9,51,-66,60,-90,00,20,55,-51,57,-89,83,12,87
15204,1,08,3,33,-9,31,-66,60,-90,00,16,20,-53,83,-89,83,13,37
15220,1,08,3,33,-9,31,-66,60,-90,00,16,20,-55,74,-89,83,13,80
15236,1,57,3,14,-9,51,-62,80,-90,00,23,55,-56,80,-89,83,15,26
15255,1,57,3,14,-7,55,-62,80,-90,00,23,55,-57,70,-89,83,16,50
15273,4,02,2,55,-7,55,-51,00,-90,00,60,30,-56,70,-89,83,23,07
15289,4,02,2,65,-9,70,-53,00,-90,00,60,30,-56,14,-89,83,28,66
15306,2,74,2,65,-9,70,-53,00,-90,00,41,10,-55,67,-89,83,30,52
15322,1,67,2,16,-10,09,-43,20,-90,00,25,05,-53,80,-89,83,29,70
15340,1,67,2,16,-10,09,-43,20,-90,00,25,05,-52,21,-89,83,29,00
15356,1,86,2,16,-10,09,-43,20,-90,00,27,90,-50,86,-89,83,28,84
15373,1,86,2,16,-9,70,-43,20,-90,00,27,90,-49,71,-89,83,28,70
15389,1,86,2,35,-9,70,-47,00,-90,00,27,90,-49,30,-89,83,28,58
15408,1,86,2,65,-9,70,-53,00,-90,00,27,90,-49,86,-89,83,28,48
15427,2,16,2,65,-9,70,-53,00,-90,00,32,40,-50,33,-89,83,29,06
15443,2,16,2,65,-9,70,-53,00,-90,00,32,40,-50,73,-89,83,29,57
15458,2,16,2,65,-9,70,-53,00,-90,00,32,40,-51,07,-89,83,29,99
15474,1,27,2,94,-10,98,-58,80,-90,00,19,05,-52,23,-89,83,28,35
15491,1,27,2,94,-10,98,-58,80,-90,00,19,05,-53,22,-89,83,26,95
15508,1,27,2,74,-10,39,-54,80,-90,00,19,05,-53,45,-89,83,25,77
15524,1,27,2,74,-9,90,-54,80,-90,00,19,05,-53,66,-89,83,24,76
15545,2,16,2,45,-9,90,-49,00,-90,00,32,40,-52,96,-89,83,25,91
15564,2,16,2,06,-9,90,-41,20,-90,00,32,40,-51,19,-89,83,26,88
15582,2,16,2,06,-9,70,-41,20,-90,00,32,40,-49,69,-89,83,27,71
15598,0,59,1,67,-9,70,-33,40,-90,00,8,85,-47,25,-89,83,24,88
15614,0,59,1,67,-10,29,-33,40,-90,00,8,85,-45,17,-89,83,22,48
15630,1,08,1,57,-10,29,-31,40,-90,00,16,20,-43,11,-89,83,21,53
15685,1,08,1,57,-10,19,-31,40,-90,00,16,20,-41,35,-89,83,20,73
15721,2,74,0,98,-8,82,-19,60,-90,00,41,10,-38,09,-89,83,23,79
15748,1,67,1,37,-9,80,-27,40,-90,00,25,05,-36,48,-89,83,23,98
15786,0,88,1,37,-9,80,-27,40,-90,00,13,20,-35,12,-89,83,22,36
15832,1,08,1,96,-10,49,-39,20,-90,00,16,20,-35,73,-89,83,21,44
15912,-0,88,2,45,-11,37,-49,00,-90,00,-13,20,-37,72,-89,83,16,24
15936,-0,88,-0,98,-7,94,19,60,-90,00,-13,20,-29,13,-89,83,11,83
15972,-0,29,-0,98,-7,94,19,60,-90,00,-4,35,-21,82,-89,83,9,40
15999,-0,78,-1,47,-7,64,29,40,-90,00,-11,70,-14,13,-89,83,6,23
16015,-0,20,-0,88,-7,84,17,60,-90,00,-3,00,-9,37,-89,83,4,85
16033,-0,20,-0,88,-7,45,17,60,-90,00,-3,00,-5,33,-89,83,3,67
16050,0,49,0,00,-7,45,-0,00,-90,00,7,35,-4,53,-89,83,4,22
16067,0,49,1,76,-9,60,-35,20,-90,00,7,35,-9,13,-89,83,4,69
16082,0,20,1,76,-9,60,-35,20,-90,00,3,00,-13,04,-89,83,4,44
16129,0,20,3,23,-13,43,-64,60,-90,00,3,00,-20,77,-89,83,4,22
16147,0,00,3,23,-13,43,-64,60,-90,00,0,00,-27,35,-89,83,3,59
16163,0,20,2,25,-10,78,-45,00,-90,00,3,00,-30,00,-89,83,3,50
16179,0,20,2,25,-10,78,-45,00,-90,00,3,00,-32,25,-89,83,3,43
16195,0,00,1,47,-9,70,-29,40,-90,00,0,00,-31,82,-89,83,2,91
16211,0,00,1,47,-9,70,-29,40,-90,00,0,00,-31,46,-89,83,2,48
16227,-0,29,-0,20,-8,23,4,00,-90,00,-4,35,-26,14,-89,83,1,45
16242,-0,29,-0,20,-8,23,4,00,-90,00,-4,35,-21,62,-89,83,0,58
16258,-1,27,-1,08,-7,55,21,60,-90,00,-19,05,-15,13,-89,83,-2,36
16274,-1,27,-1,08,-8,82,21,60,-90,00,-19,05,-9,62,-89,83,-4,87
16290,-1,67,-1,47,-8,82,29,40,-90,00,-25,05,-3,77,-89,83,-7,89
16306,-1,67,-1,47,-11,17,29,40,-90,00,-25,05,1,20,-89,83,-10,47
16322,-2,16,-0,29,-11,17,5,80,-90,00,-32,40,1,89,-89,83,-13,76
16339,-2,16,0,39,-11,56,-7,80,-90,00,-32,40,0,44,-89,83,-16,55
16355,-2,16,0,39,-11,56,-7,80,-90,00,-32,40,-0,80,-89,83,-18,93
16371,-2,16,1,27,-11,17,-25,40,-90,00,-32,40,-4,49,-89,83,-20,95
16387,0,20,1,27,-11,17,-25,40,-90,00,3,00,-7,62,-89,83,-17,36
16403,0,78,0,88,-10,39,-17,60,-90,00,11,70,-9,12,-89,83,-13,00
16419,0,78,0,88,-10,39,-17,60,-90,00,11,70,-10,39,-89,83,-9,29
16435,-0,78,-0,49,-9,70,9,80,-90,00,-11,70,-7,36,-89,83,-9,66
16451,-0,78,-0,49,-9,70,9,80,-90,00,-11,70,-4,79,-89,83,-9,96
16467,-0,78,-0,49,-9,70,9,80,-90,00,-11,70,-2,60,-89,83,-10,22
16483,-0,78,-0,49,-9,80,9,80,-90,00,-11,70,-0,74,-89,83,-10,44
16499,0,88,0,39,-9,80,-7,80,-90,00,13,20,-1,80,-89,83,-6,90
16515,0,88,0,39,-10,88,-7,80,-90,00,13,20,-2,70,-89,83,-3,88
16531,-0,29,0,29,-10,88,-5,80,-90,00,-4,35,-3,16,-89,83,-3,95
16547,-0,29,0,29,-9,70,-5,80,-90,00,-4,35,-3,56,-89,83,-4,01
16563,-1,37,0,49,-9,70,-9,80,-90,00,-20,55,-4,50,-89,83,-6,49
16579,-1,37,0,88,-9,51,-17,60,-90,00,-20,55,-6,46,-89,83,-8,60
16595,-3,04,0,88,-9,51,-17,60,-90,00,-45,60,-8,13,-89,83,-14,15
16611,-3,04,1,08,-8,53,-21,60,-90,00,-45,60,-10,15,-89,83,-18,87
16627,-3,82,1,08,-8,53,-21,60,-90,00,-57,30,-11,87,-89,83,-24,63
16643,-4,61,1,67,-8,72,-33,40,-90,00,-69,15,-15,10,-89,83,-31,31
16659,-4,61,1,67,-8,72,-33,40,-90,00,-69,15,-17,84,-89,83,-36,99
16675,-4,31,2,35,-9,70,-47,00,-90,00,-64,65,-22,22,-89,83,-41,14
16691,-4,31,2,35,-9,70,-47,00,-90,00,-64,65,-25,93,-89,83,-44,66
16707,-4,61,1,18,-7,84,-23,60,-90,00,-69,15,-25,58,-89,83,-48,34
16723,-4,61,1,18,-8,33,-23,60,-90,00,-69,15,-25,29,-89,83,-51,46
16739,-4,80,1,18,-8,33,-23,60,-90,00,-72,00,-25,03,-89,83,-54,54
16771,-5,10,1,67,-9,90,-33,40,-90,00,-76,50,-26,29,-89,83,-57,83
16787,-5,10,1,96,-9,02,-39,20,-90,00,-76,50,-28,23,-89,83,-60,63
16803,-4,90,1,96,-9,02,-39,20,-90,00,-73,50,-29,87,-89,83,-62,56
16819,-4,90,0,98,-8,04,-19,60,-90,00,-73,50,-28,33,-89,83,-64,20
16836,-5,10,0,98,-8,04,-19,60,-90,00,-76,50,-27,02,-89,83,-66,05
16852,-5,10,0,88,-7,94,-17,60,-90,00,-76,50,-25,61,-89,83,-67,62
16868,-5,10,0,88,-7,94,-17,60,-90,00,-76,50,-24,41,-89,83,-68,95
16884,-5,59,0,98,-7,64,-19,60,-90,00,-83,85,-23,69,-89,83,-71,18
16900,-5,59,0,98,-7,64,-19,60,-90,00,-83,85,-23,07,-89,83,-73,08
16916,-5,68,0,78,-7,64,-15,60,-90,00,-85,20,-21,95,-89,83,-74,90
16932,-5,68,0,78,-7,64,-15,60,-90,00,-85,20,-21,00,-89,83,-76,45
16948,-5,68,0,78,-7,64,-15,60,-90,00,-85,20,-20,19,-89,83,-77,76
16964,-5,68,0,78,-8,53,-15,60,-90,00,-85,20,-19,50,-89,83,-78,88
16980,-5,59,1,08,-8,53,-21,60,-90,00,-83,85,-19,82,-89,83,-79,62
16996,-5,59,1,08,-8,62,-21,60,-90,00,-83,85,-20,08,-89,83,-80,26
17012,-5,98,1,47,-8,62,-29,40,-90,00,-89,70,-21,48,-89,83,-81,67
17028,-5,98,1,18,-8,13,-23,60,-90,00,-89,70,-21,80,-89,83,-82,88
17044,-5,98,1,18,-8,13,-23,60,-90,00,-89,70,-22,07,-89,83,-83,90
17060,-5,98,3,14,-10,49,-62,80,-90,00,-89,70,-28,18,-89,83,-84,77
17076,-10,39,3,14,-10,49,-62,80,-90,00,-90,00,-33,37,-89,83,-85,55
17092,-10,39,2,35,-10,68,-47,00,-90,00,-90,00,-35,42,-89,83,-86,22
17108,-6,17,2,35,-10,68,-47,00,-90,00,-90,00,-37,15,-89,83,-86,79
17124,-4,02,-0,69,-8,82,13,80,-90,00,-60,30,-29,51,-89,83,-82,81
17140,-4,02,-0,69,-8,82,13,80,-90,00,-60,30,-23,01,-89,83,-79,44
17156,-4,90,-0,10,-8,53,2,00,-90,00,-73,50,-19,26,-89,83,-78,55
17187,-5,59,-0,29,-8,53,5,80,-90,00,-83,85,-15,50,-89,83,-79,34
17203,-5,59,-0,29,-6,27,5,80,-90,00,-83,85,-12,31,-89,83,-80,02
17220,-6,37,-0,78,-6,27,15,60,-90,00,-90,00,-8,12,-89,83,-81,52
17236,-6,37,-0,78,-8,13,15,60,-90,00,-90,00,-4,56,-89,83,-82,79
17252,-5,98,-0,59,-8,13,11,80,-90,00,-89,70,-2,11,-89,83,-83,83
17268,-5,98,-0,59,-9,21,11,80,-90,00,-89,70,-0,02,-89,83,-84,71
17284,-6,76,-1,18,-9,21,23,60,-90,00,-90,00,3,52,-89,83,-85,50
17300,-6,76,-0,98,-7,45,19,60,-90,00,-90,00,5,93,-89,83,-86,18
17316,-6,76,-0,98,-7,45,19,60,-90,00,-90,00,7,98,-89,83,-86,75
17332,-6,76,-1,08,-7,55,21,60,-90,00,-90,00,10,03,-89,83,-87,24
17348,-7,45,-1,08,-7,55,21,60,-90,00,-90,00,11,76,-89,83,-87,65
17364,-5,68,-0,78,-7,25,15,60,-90,00,-85,20,12,34,-89,83,-87,28
17380,-5,68,-0,78,-7,25,15,60,-90,00,-85,20,12,83,-89,83,-86,97
17396,-5,39,-0,88,-7,55,17,60,-90,00,-80,85,13,54,-89,83,-86,05
17412,-5,39,-0,88,-7,55,17,60,-90,00,-80,85,14,15,-89,83,-85,27
17428,-5,39,-2,16,-7,25,43,20,-90,00,-80,85,18,51,-89,83,-84,61
17444,-5,39,-2,16,-7,25,43,20,-90,00,-80,85,22,21,-89,83,-84,05
17460,-5,39,-2,16,-7,25,43,20,-90,00,-80,85,25,36,-89,83,-83,57
17476,-5,39,-2,16,-8,33,43,20,-90,00,-80,85,28,04,-89,83,-83,16
17492,-5,88,-2,06,-8,33,41,20,-90,00,-88,20,30,01,-89,83,-83,91
17508,-5,88,-1,76,-9,41,35,20,-90,00,-88,20,30,79,-89,83,-84,56
17524,-5,98,-1,76,-9,41,35,20,-90,00,-89,70,31,45,-89,83,-85,33
17540,-5,98,-0,88,-10,00,17,60,-90,00,-89,70,29,37,-89,83,-85,98
17572,-5,59,-0,39,-10,00,7,80,-90,00,-83,85,26,14,-89,83,-85,66
17588,-5,39,-0,39,-10,00,7,80,-90,00,-80,85,23,39,-89,83,-84,94
17604,-5,29,-0,10,-8,53,2,00,-90,00,-79,35,20,18,-89,83,-84,10
17620,-5,29,-0,10,-8,53,2,00,-90,00,-79,35,17,45,-89,83,-83,39
17636,-5,88,0,29,-7,35,-5,80,-90,00,-88,20,13,96,-89,83,-84,11
17652,-5,88,0,29,-7,35,-5,80,-90,00,-88,20,11,00,-89,83,-84,73
17668,-6,17,0,78,-7,15,-15,60,-90,00,-90,00,7,01,-89,83,-85,52
17684,-6,17,0,78,-4,31,-15,60,-86,20,-90,00,3,62,-89,28,-86,19
17700,-6,37,-0,59,-4,31,11,80,-86,20,-90,00,4,85,-88,82,-86,76
17716,-6,37,-0,59,-4,41,11,80,-88,20,-90,00,5,89,-88,73,-87,25
17732,-5,88,-0,69,-4,41,13,80,-88,20,-88,20,7,08,-88,65,-87,39
17748,-5,88,-0,69,-5,88,13,80,-90,00,-88,20,8,08,-88,85,-87,51
17764,-5,29,-0,49,-5,88,9,80,-90,00,-79,35,8,34,-89,02,-86,29
17780,-5,29,-1,37,-5,59,27,40,-90,00,-79,35,11,20,-89,17,-85,25
17796,-5,39,-1,37,-5,59,27,40,-90,00,-80,85,13,63,-89,29,-84,59
17812,-5,39,-2,16,-4,80,43,20,-90,00,-80,85,18,07,-89,40,-84,03
17828,-5,29,-2,16,-4,80,43,20,-90,00,-79,35,21,84,-89,49,-83,32
17844,-4,51,-4,51,-5,00,90,00,-90,00,-67,65,32,06,-89,57,-80,97
17860,-4,51,-4,51,-5,00,90,00,-90,00,-67,65,40,75,-89,63,-78,98
17876,-4,31,-5,49,-5,39,90,00,-90,00,-64,65,48,14,-89,69,-76,83
17892,-4,31,-5,49,-5,39,90,00,-90,00,-64,65,54,42,-89,73,-75,00
17908,-2,16,-6,86,-6,96,90,00,-90,00,-32,40,59,76,-89,77,-68,61
17924,-2,16,-6,86,-9,41,90,00,-90,00,-32,40,64,29,-89,81,-63,18
17940,-0,29,-7,35,-9,41,90,00,-90,00,-4,35,68,15,-89,81,-54,35
17972,-0,29,-7,35,-9,41,90,00,-90,00,-4,35,71,43,-89,81,-46,85
17988,-0,29,-7,45,-10,49,90,00,-90,00,-4,35,74,21,-89,81,-40,48
18004,-0,29,-7,45,-10,49,90,00,-90,00,-4,35,76,58,-89,81,-35,06
18020,-0,29,-8,43,-10,29,90,00,-90,00,-4,35,78,59,-89,81,-30,45
18038,1,37,-8,43,-10,29,90,00,-90,00,20,55,80,30,-89,81,-22,80
18055,-0,49,-6,96,-11,66,90,00,-90,00,-7,35,81,76,-89,81,-20,48
18072,-0,49,-6,96,-12,35,90,00,-90,00,-7,35,82,99,-89,81,-18,51
18088,-1,37,-5,39,-12,35,90,00,-90,00,-20,55,84,05,-89,81,-18,82
18105,-1,37,-5,39,-11,37,90,00,-90,00,-20,55,84,94,-89,81,-19,08
18122,-1,67,-2,94,-11,37,58,80,-90,00,-25,05,81,02,-89,81,-19,97
18138,-1,67,-2,25,-10,58,45,00,-90,00,-25,05,75,62,-89,81,-20,74
18155,-2,35,-2,25,-10,58,45,00,-90,00,-35,25,71,02,-89,81,-22,91
18172,-1,37,-2,16,-9,41,43,20,-90,00,-20,55,66,85,-89,81,-22,56
18188,-1,37,-2,16,-9,41,43,20,-90,00,-20,55,63,30,-89,81,-22,26
18205,-0,59,-2,55,-10,39,51,00,-90,00,-8,85,61,46,-89,81,-20,25
18222,-0,59,-2,55,-10,39,51,00,-90,00,-8,85,59,89,-89,81,-18,54
18238,0,20,-3,23,-10,09,64,60,-90,00,3,00,60,60,-89,81,-15,31
18255,0,20,-3,23,-10,29,64,60,-90,00,3,00,61,20,-89,81,-12,56
18272,-0,20,-3,14,-10,29,62,80,-90,00,-3,00,61,44,-89,81,-11,13
18288,-0,20,-3,14,-10,49,62,80,-90,00,-3,00,61,64,-89,81,-9,91
18305,-0,49,-3,14,-10,49,62,80,-90,00,-7,35,61,81,-89,81,-9,52
18322,-0,49,-2,84,-10,29,56,80,-90,00,-7,35,61,06,-89,81,-9,20
18338,0,00,-2,84,-10,29,56,80,-90,00,0,00,60,42,-89,81,-7,82
18355,-0,78,-3,14,-10,29,62,80,-90,00,-11,70,60,78,-89,81,-8,40
18372,-0,78,-3,14,-10,29,62,80,-90,00,-11,70,61,08,-89,81,-8,90
18388,1,67,-3,82,-10,88,76,40,-90,00,25,05,63,38,-89,81,-3,80
18404,1,67,-3,82,-9,70,76,40,-90,00,25,05,65,33,-89,81,0,52
18420,1,67,-4,80,-9,70,90,00,-90,00,25,05,69,03,-89,81,4,20
18439,1,67,-5,00,-8,62,90,00,-90,00,25,05,72,18,-89,81,7,33
18455,1,57,-5,00,-8,62,90,00,-90,00,23,55,74,85,-89,81,9,76
18472,1,57,-5,00,-8,62,90,00,-90,00,23,55,77,12,-89,81,11,83
18489,1,57,-5,00,-8,62,90,00,-90,00,23,55,79,06,-89,81,13,59
18505,1,57,-5,29,-8,04,90,00,-90,00,23,55,80,70,-89,81,15,08
18522,1,57,-5,29,-8,72,90,00,-90,00,23,55,82,09,-89,81,16,35
18539,1,57,-5,39,-8,72,90,00,-90,00,23,55,83,28,-89,81,17,43
18555,1,57,-5,39,-8,53,90,00,-90,00,23,55,84,29,-89,81,18,35
18572,2,16,-5,39,-8,53,90,00,-90,00,32,40,85,14,-89,81,20,46
18589,2,16,-6,27,-7,15,90,00,-90,00,32,40,85,87,-89,81,22,25
18605,1,67,-6,27,-7,15,90,00,-90,00,25,05,86,49,-89,81,22,67
18622,1,67,-6,37,-5,59,90,00,-90,00,25,05,87,02,-89,81,23,03
18638,2,65,-6,37,-5,59,90,00,-90,00,39,75,87,47,-89,81,25,53
18655,3,04,-7,64,-5,00,90,00,-90,00,45,60,87,85,-89,81,28,54
18672,3,04,-7,64,-5,00,90,00,-90,00,45,60,88,17,-89,81,31,10
18688,3,43,-8,04,-3,92,90,00,-78,40,51,45,88,44,-88,10,34,16
18706,3,43,-8,04,-4,31,90,00,-86,20,51,45,88,68,-87,81,36,75
18722,4,21,-8,23,-4,31,90,00,-86,20,63,15,88,88,-87,57,40,71
18739,4,21,-9,31,-0,98,90,00,-19,60,63,15,89,04,-77,37,44,08
18755,5,10,-9,31,-0,98,90,00,-19,60,76,50,89,19,-68,71,48,94
18772,5,10,-9,31,-0,69,90,00,-13,80,76,50,89,31,-60,47,53,07
18788,5,29,-9,31,-0,69,90,00,-13,80,79,35,89,41,-53,47,57,01
18804,4,80,-8,62,-1,96,90,00,-39,20,72,00,89,50,-51,33,59,26
18820,4,80,-8,62,-1,96,90,00,-39,20,72,00,89,58,-49,51,61,17
18836,4,61,-8,72,0,98,90,00,19,60,69,15,89,64,-39,14,62,37
18852,4,61,-8,72,0,98,90,00,19,60,69,15,89,69,-30,33,63,39
18868,4,31,-8,33,0,88,90,00,17,60,64,65,89,74,-23,14,63,58
18884,4,31,-8,33,2,45,90,00,49,00,64,65,89,78,-12,32,63,74
18900,3,53,-8,33,2,45,90,00,49,00,52,95,89,81,-3,12,62,12
18916,3,53,-8,33,2,94,90,00,58,80,52,95,89,81,6,17,60,74
18932,3,04,-8,04,2,94,90,00,58,80,45,60,89,81,14,06,58,47
18948,3,04,-8,04,2,94,90,00,58,80,45,60,89,81,20,77,56,54
18964,3,04,-8,04,2,94,90,00,58,80,45,60,89,81,26,48,54,90
18980,3,04,-7,35,2,94,90,00,58,80,45,60,89,81,31,32,53,51
18996,0,20,-7,35,2,94,90,00,58,80,3,00,89,81,35,45,45,93
19012,0,20,-6,47,3,82,90,00,76,40,3,00,89,81,41,59,39,49
19028,1,27,-6,47,3,82,90,00,76,40,19,05,89,81,46,81,36,42
19056,1,57,-6,17,5,29,90,00,90,00,23,55,89,81,53,29,34,49
19072,1,57,-5,78,7,84,90,00,90,00,23,55,89,81,58,80,32,85
19089,1,27,-5,78,7,84,90,00,90,00,19,05,89,81,63,48,30,78
19105,0,88,-5,78,8,62,90,00,90,00,13,20,89,81,67,45,28,14
19122,0,88,-5,78,8,62,90,00,90,00,13,20,89,81,70,84,25,90
19139,1,37,-5,00,9,11,90,00,90,00,20,55,89,81,73,71,25,10
19155,1,37,-5,00,8,82,90,00,90,00,20,55,89,81,76,15,24,42
19172,0,88,-4,41,8,82,88,20,90,00,13,20,89,57,78,23,22,73
19188,0,88,-4,41,8,33,88,20,90,00,13,20,89,36,80,00,21,30
19204,0,59,-4,02,8,33,80,40,90,00,8,85,88,02,81,50,19,44
19220,0,59,-2,84,9,31,56,80,90,00,8,85,83,34,82,77,17,85
19236,0,78,-2,84,9,31,56,80,90,00,11,70,79,36,83,86,16,93
19252,0,78,-2,55,9,51,51,00,90,00,11,70,75,10,84,78,16,14
19268,1,08,-2,55,9,51,51,00,90,00,16,20,71,49,85,56,16,14
19284,1,08,-2,06,9,41,41,20,90,00,16,20,66,94,86,23,16,14
19300,1,08,-2,06,9,41,41,20,90,00,16,20,63,08,86,79,16,14
19316,0,49,-0,88,8,53,17,60,90,00,7,35,56,26,87,27,14,82
19332,0,49,-0,88,8,53,17,60,90,00,7,35,50,46,87,68,13,70
19348,0,20,-0,39,7,94,7,80,90,00,3,00,44,06,88,03,12,10
19364,0,20,-0,39,9,02,7,80,90,00,3,00,38,62,88,33,10,73
19380,-0,59,0,88,9,02,-17,60,90,00,-8,85,30,19,88,58,7,80
19396,-0,59,0,88,9,51,-17,60,90,00,-8,85,23,02,88,79,5,30
19412,-0,20,1,27,9,51,-25,40,90,00,-3,00,15,76,88,97,4,05
19428,-0,20,2,55,9,21,-51,00,90,00,-3,00,5,74,89,13,3,00
19444,-0,49,2,55,9,21,-51,00,90,00,-7,35,-2,77,89,26,1,44
19460,-0,49,2,55,9,21,-51,00,90,00,-7,35,-10,00,89,37,0,12
19476,-0,49,2,55,9,21,-51,00,90,00,-7,35,-16,15,89,46,-1,00
19492,-0,49,3,04,9,80,-60,80,90,00,-7,35,-22,85,89,54,-1,95
19508,-0,88,3,04,9,80,-60,80,90,00,-13,20,-28,54,89,61,-3,64
19524,-0,78,2,94,9,90,-58,80,90,00,-11,70,-33,08,89,67,-4,85
19540,-0,78,2,94,9,90,-58,80,90,00,-11,70,-36,94,89,72,-5,87
19556,-2,74,4,61,9,11,-90,00,90,00,-41,10,-44,90,89,76,-11,16
19589,-1,67,5,00,9,41,-90,00,90,00,-25,05,-51,66,89,80,-13,24
19606,-1,67,5,00,9,51,-90,00,90,00,-25,05,-57,41,89,83,-15,01
19622,-1,96,4,12,9,51,-82,40,90,00,-29,40,-61,16,89,83,-17,17
19638,-1,96,4,80,8,62,-90,00,90,00,-29,40,-65,49,89,83,-19,01
19656,-1,96,4,80,8,62,-90,00,90,00,-29,40,-69,16,89,83,-20,56
19672,-1,96,4,70,6,96,-90,00,90,00,-29,40,-72,29,89,83,-21,89
19689,-2,16,4,70,6,96,-90,00,90,00,-32,40,-74,95,89,83,-23,47
19705,-1,86,4,70,8,33,-90,00,90,00,-27,90,-77,20,89,83,-24,13
19722,-1,86,4,70,8,33,-90,00,90,00,-27,90,-79,12,89,83,-24,70
19739,-1,08,5,10,7,15,-90,00,90,00,-16,20,-80,76,89,83,-23,42
19756,-1,08,5,10,7,45,-90,00,90,00,-16,20,-82,14,89,83,-22,34
19772,-2,74,5,78,7,45,-90,00,90,00,-41,10,-83,32,89,83,-25,15
19789,-2,74,6,96,8,72,-90,00,90,00,-41,10,-84,32,89,83,-27,55
19806,-2,16,6,96,8,72,-90,00,90,00,-32,40,-85,17,89,83,-28,27
19822,-1,96,7,94,7,25,-90,00,90,00,-29,40,-85,90,89,83,-28,44
19839,-1,96,7,94,7,25,-90,00,90,00,-29,40,-86,51,89,83,-28,59
19856,-0,59,7,55,5,88,-90,00,90,00,-8,85,-87,04,89,83,-25,63
19872,-0,59,7,55,5,88,-90,00,90,00,-8,85,-87,48,89,83,-23,11
19889,-0,59,8,53,5,49,-90,00,90,00,-8,85,-87,86,89,83,-20,97
19905,-0,59,8,53,5,98,-90,00,90,00,-8,85,-88,18,89,83,-19,15
19922,-1,27,10,29,5,98,-90,00,90,00,-19,05,-88,45,89,83,-19,15
19939,-1,27,10,49,5,59,-90,00,90,00,-19,05,-88,68,89,83,-19,15
19955,-1,96,10,49,5,59,-90,00,90,00,-29,40,-88,88,89,83,-20,69
19971,-1,96,10,49,5,59,-90,00,90,00,-29,40,-89,05,89,83,-22,00
19987,-1,96,10,49,5,59,-90,00,90,00,-29,40,-89,19,89,83,-23,11
20003,-0,78,11,27,4,80,-90,00,90,00,-11,70,-89,31,89,83,-21,40
20020,-0,78,11,27,4,80,-90,00,90,00,-11,70,-89,42,89,83,-19,94
20035,-1,96,10,78,3,23,-90,00,64,60,-29,40,-89,50,86,04,-21,36
20051,-1,96,10,78,3,23,-90,00,64,60,-29,40,-89,58,82,83,-22,57
20067,-1,67,11,27,1,47,-90,00,29,40,-25,05,-89,64,74,81,-22,94
20083,-1,67,11,27,1,18,-90,00,23,60,-25,05,-89,70,67,13,-23,26
20099,-1,57,10,49,1,18,-90,00,23,60,-23,55,-89,74,60,60,-23,30
20115,-1,57,10,49,-0,39,-90,00,-7,80,-23,55,-89,78,50,34,-23,34
20131,-0,29,10,00,-0,39,-90,00,-7,80,-4,35,-89,81,41,62,-20,49
20147,-0,29,10,00,-2,35,-90,00,-47,00,-4,35,-89,81,28,33,-18,07
20163,-0,49,10,39,-2,35,-90,00,-47,00,-7,35,-89,81,17,03,-16,46
20179,-0,49,11,17,-3,92,-90,00,-78,40,-7,35,-89,81,2,71,-15,09
20196,-1,67,11,17,-3,92,-90,00,-78,40,-25,05,-89,81,-9,45,-16,59
20212,-1,67,9,80,-3,04,-90,00,-60,80,-25,05,-89,81,-17,16,-17,86
20228,-2,74,9,80,-3,04,-90,00,-60,80,-41,10,-89,81,-23,70,-21,34
20244,-1,96,6,27,-3,63,-90,00,-72,60,-29,40,-89,81,-31,04,-22,55
20260,-1,96,6,27,-3,63,-90,00,-72,60,-29,40,-89,81,-37,27,-23,58
20276,-0,88,6,76,-9,02,-90,00,-90,00,-13,20,-89,81,-45,18,-22,02
20292,-0,88,6,76,-9,02,-90,00,-90,00,-13,20,-89,81,-51,90,-20,70
20308,-1,57,5,88,-8,72,-90,00,-90,00,-23,55,-89,81,-57,62,-21,13
20324,-1,57,5,88,-8,13,-90,00,-90,00,-23,55,-89,81,-62,48,-21,49
20340,0,29,4,02,-8,13,-80,40,-90,00,4,35,-88,40,-66,60,-17,61
20356,0,29,4,02,-8,04,-80,40,-90,00,4,35,-87,20,-70,11,-14,32
20387,-1,96,2,65,-8,53,-53,00,-90,00,-29,40,-82,07,-73,10,-16,58
20403,3,23,5,00,-8,53,-90,00,-90,00,48,45,-83,26,-75,63,-6,83
20419,3,23,1,27,-9,41,-25,40,-90,00,48,45,-74,58,-77,79,1,46
20436,1,37,1,27,-9,41,-25,40,-90,00,20,55,-67,20,-79,62,4,33
20452,1,37,0,59,-8,33,-11,80,-90,00,20,55,-58,89,-81,18,6,76
20468,0,59,0,59,-8,33,-11,80,-90,00,8,85,-51,83,-82,50,7,07
20484,0,59,0,59,-8,33,-11,80,-90,00,8,85,-45,82,-83,62,7,34
20500,0,59,0,59,-8,33,-11,80,-90,00,8,85,-40,72,-84,58,7,57
20516,1,57,0,29,-8,23,-5,80,-90,00,23,55,-35,48,-85,39,9,96
20532,1,57,0,29,-8,23,-5,80,-90,00,23,55,-31,03,-86,08,12,00
20548,2,16,-0,10,-8,53,2,00,-90,00,32,40,-26,08,-86,67,15,06
20564,2,16,-0,10,-9,60,2,00,-90,00,32,40,-21,86,-87,17,17,66
20580,2,65,-0,39,-9,60,7,80,-90,00,39,75,-17,41,-87,60,20,98
20596,2,65,-0,39,-9,70,7,80,-90,00,39,75,-13,63,-87,96,23,79
20612,1,37,-0,98,-9,70,19,60,-90,00,20,55,-8,65,-88,26,23,31
20628,1,37,-0,98,-11,56,19,60,-90,00,20,55,-4,41,-88,52,22,89
20644,2,65,0,59,-11,56,-11,80,-90,00,39,75,-5,52,-88,74,25,42
20660,2,65,-1,37,-10,39,27,40,-90,00,39,75,-0,58,-88,93,27,57
20676,1,37,-1,37,-10,39,27,40,-90,00,20,55,3,62,-89,09,26,52
20692,1,37,-3,53,-8,82,70,60,-90,00,20,55,13,66,-89,23,25,62
20708,0,29,-3,53,-8,82,70,60,-90,00,4,35,22,20,-89,34,22,43
20724,1,67,-1,67,-9,02,33,40,-90,00,25,05,23,88,-89,44,22,82
20740,1,67,-1,67,-9,02,33,40,-90,00,25,05,25,31,-89,53,23,16
20756,0,78,-1,96,-10,39,39,20,-90,00,11,70,27,39,-89,60,21,44
20787,0,88,-1,96,-9,70,39,20,-90,00,13,20,29,17,-89,66,20,20
20803,0,88,-1,96,-9,60,39,20,-90,00,13,20,30,67,-89,71,19,15
20819,0,78,-1,86,-9,60,37,20,-90,00,11,70,31,65,-89,75,18,03
20835,0,78,-1,86,-10,49,37,20,-90,00,11,70,32,48,-89,79,17,08
20851,0,88,-1,47,-10,49,29,40,-90,00,13,20,32,02,-89,82,16,50
20867,0,88,-1,47,-10,39,29,40,-90,00,13,20,31,63,-89,82,16,01
20883,1,08,-1,57,-10,39,31,40,-90,00,16,20,31,59,-89,82,16,01
20899,1,08,-1,67,-10,00,33,40,-90,00,16,20,31,86,-89,82,16,01
20915,0,88,-1,67,-10,00,33,40,-90,00,13,20,32,09,-89,82,15,59
20932,0,88,-1,67,-10,00,33,40,-90,00,13,20,32,29,-89,82,15,23
20948,1,08,-1,67,-10,00,33,40,-90,00,16,20,32,46,-89,82,15,37
20964,1,08,-1,67,-10,00,33,40,-90,00,16,20,32,60,-89,82,15,50
20980,1,08,-1,67,-10,00,33,40,-90,00,16,20,32,72,-89,82,15,60
20996,1,27,-1,57,-10,19,31,40,-90,00,19,05,32,52,-89,82,16,12
21012,1,27,-1,57,-10,19,31,40,-90,00,19,05,32,35,-89,82,16,56
21028,1,27,-1,57,-9,90,31,40,-90,00,19,05,32,21,-89,82,16,93
21044,1,27,-1,57,-10,00,31,40,-90,00,19,05,32,09,-89,82,17,25
21060,1,27,-1,67,-10,00,33,40,-90,00,19,05,32,29,-89,82,17,52
21076,1,27,-1,67,-9,80,33,40,-90,00,19,05,32,45,-89,82,17,75
21092,1,27,-1,67,-9,80,33,40,-90,00,19,05,32,59,-89,82,17,94
21108,1,27,-1,67,-9,90,33,40,-90,00,19,05,32,72,-89,82,18,11
21124,1,08,-1,76,-9,90,35,20,-90,00,16,20,33,09,-89,82,17,82
21140,1,08,-1,76,-9,90,35,20,-90,00,16,20,33,40,-89,82,17,58
21156,1,27,-1,76,-9,90,35,20,-90,00,19,05,33,67,-89,82,17,80
21188,1,08,-1,86,-9,60,37,20,-90,00,16,20,34,20,-89,82,17,56
21204,1,08,-1,86,-9,60,37,20,-90,00,16,20,34,65,-89,82,17,36
21220,1,08,-1,86,-9,60,37,20,-90,00,16,20,35,03,-89,82,17,18
21236,1,08,-1,67,-10,00,33,40,-90,00,16,20,34,79,-89,82,17,04
21252,1,08,-1,67,-10,00,33,40,-90,00,16,20,34,58,-89,82,16,91
21268,1,27,-1,67,-10,00,33,40,-90,00,19,05,34,40,-89,82,17,23
21284,1,27,-1,67,-9,80,33,40,-90,00,19,05,34,25,-89,82,17,50
21300,1,37,-1,37,-9,80,27,40,-90,00,20,55,33,23,-89,82,17,96
21316,1,37,-1,37,-9,41,27,40,-90,00,20,55,32,35,-89,82,18,35
21332,1,37,-0,98,-9,41,19,60,-90,00,20,55,30,44,-89,82,18,68
21348,1,37,-0,98,-10,68,19,60,-90,00,20,55,28,81,-89,82,18,96
21364,1,37,-0,29,-10,68,5,80,-90,00,20,55,25,36,-89,82,19,20
21380,1,37,-1,27,-9,31,25,40,-90,00,20,55,25,36,-89,82,19,40
21396,1,08,-1,27,-9,31,25,40,-90,00,16,20,25,36,-89,82,18,92
21412,1,08,-2,45,-9,31,49,00,-90,00,16,20,28,91,-89,82,18,51
21428,-0,29,-2,45,-9,31,49,00,-90,00,-4,35,31,92,-89,82,15,08
21444,0,29,-1,37,-9,21,27,40,-90,00,4,35,31,24,-89,82,13,47
21460,0,29,-1,37,-9,21,27,40,-90,00,4,35,30,67,-89,82,12,10
21476,0,29,-1,37,-9,21,27,40,-90,00,4,35,30,18,-89,82,10,94
21492,0,29,-1,37,-9,21,27,40,-90,00,4,35,29,76,-89,82,9,95
21508,0,29,-0,49,-11,17,9,80,-90,00,4,35,26,77,-89,82,9,11
21524,0,29,-0,49,-10,00,9,80,-90,00,4,35,24,22,-89,82,8,40
21540,-0,78,-0,39,-10,00,7,80,-90,00,-11,70,21,76,-89,82,5,38
21556,-0,78,-0,39,-9,11,7,80,-90,00,-11,70,19,66,-89,82,2,82
21587,0,49,0,59,-9,90,-11,80,-90,00,7,35,14,94,-89,82,3,50
21603,0,49,1,47,-9,90,-29,40,-90,00,7,35,8,29,-89,82,4,08
21619,0,49,2,35,-9,70,-47,00,-90,00,7,35,-0,00,-89,82,4,57
21635,-0,29,2,35,-9,70,-47,00,-90,00,-4,35,-7,05,-89,82,3,23
21651,-0,29,3,23,-9,41,-64,60,-90,00,-4,35,-15,68,-89,82,2,09
21667,-0,49,3,23,-9,41,-64,60,-90,00,-7,35,-23,02,-89,82,0,68
21683,-0,29,4,02,-8,72,-80,40,-90,00,-4,35,-31,63,-89,82,-0,08
21700,-0,29,4,02,-8,72,-80,40,-90,00,-4,35,-38,94,-89,82,-0,72
21716,-0,20,5,19,-7,35,-90,00,-90,00,-3,00,-46,60,-89,82,-1,06
21732,-0,20,5,19,-7,35,-90,00,-90,00,-3,00,-53,11,-89,82,-1,35
21748,-0,29,5,39,-7,84,-90,00,-90,00,-4,35,-58,64,-89,82,-1,80
21764,-0,29,5,39,-8,82,-90,00,-90,00,-4,35,-63,35,-89,82,-2,18
21780,-0,59,5,78,-8,82,-90,00,-90,00,-8,85,-67,35,-89,82,-3,18
21796,-0,59,5,78,-9,21,-90,00,-90,00,-8,85,-70,74,-89,82,-4,03
21812,-1,08,6,08,-9,21,-90,00,-90,00,-16,20,-73,63,-89,82,-5,86
21828,-1,08,6,57,-9,21,-90,00,-90,00,-16,20,-76,09,-89,82,-7,41
21844,-0,78,6,57,-9,21,-90,00,-90,00,-11,70,-78,17,-89,82,-8,05
21860,-0,78,6,76,-7,84,-90,00,-90,00,-11,70,-79,95,-89,82,-8,60
21876,-0,78,6,76,-7,84,-90,00,-90,00,-11,70,-81,46,-89,82,-9,07
21892,-0,78,6,86,-6,76,-90,00,-90,00,-11,70,-82,74,-89,82,-9,46
21908,-0,49,6,86,-6,76,-90,00,-90,00,-7,35,-83,83,-89,82,-9,14
21924,-0,49,7,45,-6,66,-90,00,-90,00,-7,35,-84,75,-89,82,-8,87
21940,-0,49,7,45,-6,66,-90,00,-90,00,-7,35,-85,54,-89,82,-8,65
21956,-0,20,7,84,-6,66,-90,00,-90,00,-3,00,-86,21,-89,82,-7,80
21988,-0,20,7,84,-6,66,-90,00,-90,00,-3,00,-86,78,-89,82,-7,08
22004,-0,20,7,84,-6,86,-90,00,-90,00,-3,00,-87,26,-89,82,-6,47
22020,-0,20,7,94,-6,86,-90,00,-90,00,-3,00,-87,67,-89,82,-5,95
22036,-0,20,7,94,-6,76,-90,00,-90,00,-3,00,-88,02,-89,82,-5,51
22052,-0,29,8,53,-6,76,-90,00,-90,00,-4,35,-88,32,-89,82,-5,33
22068,-0,29,8,33,-6,27,-90,00,-90,00,-4,35,-88,57,-89,82,-5,18
22084,-0,49,8,33,-6,27,-90,00,-90,00,-7,35,-88,78,-89,82,-5,51
22100,-0,49,8,33,-6,08,-90,00,-90,00,-7,35,-88,97,-89,82,-5,79
22116,-0,20,8,33,-6,08,-90,00,-90,00,-3,00,-89,12,-89,82,-5,37
22132,-0,20,8,23,-5,98,-90,00,-90,00,-3,00,-89,25,-89,82,-5,01
22148,-0,29,8,23,-5,98,-90,00,-90,00,-4,35,-89,37,-89,82,-4,91
22164,-0,29,8,23,-5,78,-90,00,-90,00,-4,35,-89,46,-89,82,-4,83
22180,-0,29,8,23,-5,78,-90,00,-90,00,-4,35,-89,54,-89,82,-4,76
22196,-0,20,8,23,-5,59,-90,00,-90,00,-3,00,-89,61,-89,82,-4,49
22212,-0,20,8,23,-5,59,-90,00,-90,00,-3,00,-89,67,-89,82,-4,27
22228,-0,20,8,13,-5,39,-90,00,-90,00,-3,00,-89,72,-89,82,-4,08
22244,-0,20,8,13,-5,78,-90,00,-90,00,-3,00,-89,76,-89,82,-3,92
22260,-0,20,8,23,-5,78,-90,00,-90,00,-3,00,-89,80,-89,82,-3,78
22276,-0,20,8,23,-5,78,-90,00,-90,00,-3,00,-89,83,-89,82,-3,66
22292,-0,29,8,23,-5,78,-90,00,-90,00,-4,35,-89,83,-89,82,-3,77
22308,-0,29,8,13,-5,68,-90,00,-90,00,-4,35,-89,83,-89,82,-3,85
22324,-0,29,8,13,-5,68,-90,00,-90,00,-4,35,-89,83,-89,82,-3,93
22340,-0,29,8,23,-5,78,-90,00,-90,00,-4,35,-89,83,-89,82,-3,99
22356,-0,20,8,23,-5,78,-90,00,-90,00,-3,00,-89,83,-89,82,-3,84
22372,-0,20,8,23,-5,98,-90,00,-90,00,-3,00,-89,83,-89,82,-3,72
22404,-0,20,8,13,-6,27,-90,00,-90,00,-3,00,-89,83,-89,82,-3,61
22420,-0,20,8,13,-6,27,-90,00,-90,00,-3,00,-89,83,-89,82,-3,52
22436,-0,20,8,13,-6,27,-90,00,-90,00,-3,00,-89,83,-89,82,-3,44
22452,-0,20,8,13,-6,27,-90,00,-90,00,-3,00,-89,83,-89,82,-3,37
22468,-0,29,8,23,-6,96,-90,00,-90,00,-4,35,-89,83,-89,82,-3,52
22484,-0,29,8,23,-6,96,-90,00,-90,00,-4,35,-89,83,-89,82,-3,64
22500,-0,29,8,23,-6,96,-90,00,-90,00,-4,35,-89,83,-89,82,-3,75
22516,-0,29,8,23,-8,62,-90,00,-90,00,-4,35,-89,83,-89,82,-3,84
22532,-0,78,8,62,-8,62,-90,00,-90,00,-11,70,-89,83,-89,82,-5,02
22548,-0,78,8,92,-10,68,-90,00,-90,00,-11,70,-89,83,-89,82,-6,02
22564,-1,08,8,92,-10,68,-90,00,-90,00,-16,20,-89,83,-89,82,-7,55
22580,-1,08,8,82,-13,92,-90,00,-90,00,-16,20,-89,83,-89,82,-8,85
22596,-1,27,8,82,-13,92,-90,00,-90,00,-19,05,-89,83,-89,82,-10,38
22612,-1,27,7,45,-11,76,-90,00,-90,00,-19,05,-89,83,-89,82,-11,68
22628,-0,49,7,45,-11,76,-90,00,-90,00,-7,35,-89,83,-89,82,-11,03
22644,0,00,6,27,-10,09,-90,00,-90,00,0,00,-89,83,-89,82,-9,37
22660,0,00,6,27,-10,09,-90,00,-90,00,0,00,-89,83,-89,82,-7,97
22676,-0,78,2,45,-7,45,-49,00,-90,00,-11,70,-83,70,-89,82,-8,53
22705,0,29,0,69,-7,06,-13,80,-90,00,4,35,-73,22,-89,82,-6,60
22722,0,29,0,69,-7,06,-13,80,-90,00,4,35,-64,30,-89,82,-4,95
22738,1,27,-4,12,-5,88,82,40,-90,00,19,05,-42,30,-89,82,-1,35
22755,1,27,-4,12,-4,70,82,40,-90,00,19,05,-23,59,-89,82,1,71
22772,0,20,-5,88,-4,70,90,00,-90,00,3,00,-6,56,-89,82,1,90
22788,0,20,-6,17,-7,06,90,00,-90,00,3,00,7,93,-89,82,2,07
22804,-1,08,-6,17,-7,06,90,00,-90,00,-16,20,20,24,-89,82,-0,67
22820,-1,08,-4,90,-6,37,90,00,-90,00,-16,20,30,70,-89,82,-3,00
22836,-0,29,-4,90,-6,37,90,00,-90,00,-4,35,39,60,-89,82,-3,21
22852,-0,29,-4,51,-6,37,90,00,-90,00,-4,35,47,16,-89,82,-3,38
22868,-0,59,-4,51,-6,37,90,00,-90,00,-8,85,53,58,-89,82,-4,20
22884,-2,94,-2,16,-4,80,43,20,-90,00,-44,10,52,03,-89,82,-10,18
22900,-2,94,-2,16,-4,80,43,20,-90,00,-44,10,50,70,-89,82,-15,27
22916,0,00,-1,96,-7,06,39,20,-90,00,0,00,48,98,-89,82,-12,98
22932,0,00,-1,96,-7,06,39,20,-90,00,0,00,47,51,-89,82,-11,03
22948,0,29,-1,76,-7,94,35,20,-90,00,4,35,45,66,-89,82,-8,73
22964,0,29,-1,76,-7,94,35,20,-90,00,4,35,44,09,-89,82,-6,76
22980,0,29,-1,76,-7,94,35,20,-90,00,4,35,42,76,-89,82,-5,10
22996,0,29,-1,76,-9,51,35,20,-90,00,4,35,41,63,-89,82,-3,68
23012,1,37,-0,69,-9,51,13,80,-90,00,20,55,37,45,-89,82,-0,05
23028,1,37,0,59,-10,78,-11,80,-90,00,20,55,30,06,-89,82,3,04
23044,2,16,0,59,-10,78,-11,80,-90,00,32,40,23,78,-89,82,7,45
23060,2,16,0,20,-11,07,-4,00,-90,00,32,40,19,62,-89,82,11,19
23076,1,96,0,20,-11,07,-4,00,-90,00,29,40,16,07,-89,82,13,92
23092,1,96,0,49,-12,35,-9,80,-90,00,29,40,12,19,-89,82,16,24
23108,0,78,0,49,-12,35,-9,80,-90,00,11,70,8,89,-89,82,15,56
23124,0,49,0,98,-13,13,-19,60,-90,00,7,35,4,62,-89,82,14,33
23140,0,49,0,98,-13,13,-19,60,-90,00,7,35,0,99,-89,82,13,28
23156,0,88,-0,29,-10,49,5,80,-90,00,13,20,1,71,-89,82,13,28
23172,0,88,-0,29,-10,49,5,80,-90,00,13,20,2,32,-89,82,13,28
23203,0,20,-0,10,-10,39,2,00,-90,00,3,00,2,27,-89,82,11,74
23219,0,88,-0,20,-9,41,4,00,-90,00,13,20,2,53,-89,82,11,96
23235,0,88,-0,20,-11,76,4,00,-90,00,13,20,2,75,-89,82,12,15
23251,-1,08,0,20,-11,76,-4,00,-90,00,-16,20,1,74,-89,82,7,89
23268,-1,08,0,20,-11,27,-4,00,-90,00,-16,20,0,88,-89,82,4,28
23284,0,49,1,47,-11,27,-29,40,-90,00,7,35,-3,66,-89,82,4,74
23300,0,49,0,39,-9,60,-7,80,-90,00,7,35,-4,28,-89,82,5,13
23316,-0,59,0,39,-9,60,-7,80,-90,00,-8,85,-4,81,-89,82,3,03
23332,-0,59,2,35,-13,13,-47,00,-90,00,-8,85,-11,14,-89,82,1,25
23348,1,27,2,35,-13,13,-47,00,-90,00,19,05,-16,52,-89,82,3,92
23364,-0,59,1,96,-11,66,-39,20,-90,00,-8,85,-19,92,-89,82,2,01
23380,-0,59,1,96,-11,66,-39,20,-90,00,-8,85,-22,81,-89,82,0,38
23396,1,37,2,94,-12,25,-58,80,-90,00,20,55,-28,21,-89,82,3,40
23412,1,37,2,94,-12,25,-58,80,-90,00,20,55,-32,80,-89,82,5,98
23428,3,53,5,59,-11,96,-90,00,-90,00,52,95,-41,38,-89,82,13,02
23444,3,53,5,59,-8,72,-90,00,-90,00,52,95,-48,67,-89,82,19,01
23460,-2,74,-0,10,-8,72,2,00,-90,00,-41,10,-41,07,-89,82,9,99
23476,-2,74,-0,10,-8,72,2,00,-90,00,-41,10,-34,61,-89,82,2,33
23492,-2,74,-0,10,-8,72,2,00,-90,00,-41,10,-29,12,-89,82,-4,18
23508,-2,74,-0,10,-8,72,2,00,-90,00,-41,10,-24,45,-89,82,-9,72
23524,1,86,-0,59,-8,72,11,80,-90,00,27,90,-19,01,-89,82,-4,08
23540,1,86,0,29,-11,66,-5,80,-90,00,27,90,-17,03,-89,82,0,72
23556,2,35,0,29,-11,66,-5,80,-90,00,35,25,-15,35,-89,82,5,90
23588,0,59,1,47,-10,39,-29,40,-90,00,8,85,-17,45,-89,82,6,34
23604,1,27,2,16,-9,51,-43,20,-90,00,19,05,-21,32,-89,82,8,25
23620,1,27,2,16,-9,51,-43,20,-90,00,19,05,-24,60,-89,82,9,87
23636,1,37,2,55,-9,51,-51,00,-90,00,20,55,-28,56,-89,82,11,47
23652,1,37,2,55,-9,51,-51,00,-90,00,20,55,-31,93,-89,82,12,83
23668,0,29,1,76,-11,47,-35,20,-90,00,4,35,-32,42,-89,82,11,56
23684,0,29,1,76,-11,47,-35,20,-90,00,4,35,-32,83,-89,82,10,48
23700,0,49,2,16,-11,47,-43,20,-90,00,7,35,-34,39,-89,82,10,01
23716,0,49,2,16,-9,60,-43,20,-90,00,7,35,-35,71,-89,82,9,61
23732,-0,59,1,96,-9,60,-39,20,-90,00,-8,85,-36,23,-89,82,6,84
23748,-0,59,1,76,-8,62,-35,20,-90,00,-8,85,-36,08,-89,82,4,49
23773,-1,27,1,76,-8,62,-35,20,-90,00,-19,05,-35,95,-89,82,0,96
23789,-2,74,1,18,-10,09,-23,60,-90,00,-41,10,-34,10,-89,82,-5,35
23805,-2,74,1,18,-9,51,-23,60,-90,00,-41,10,-32,52,-89,82,-10,71
23822,-0,59,1,37,-9,51,-27,40,-90,00,-8,85,-31,75,-89,82,-10,43
23838,-0,59,1,57,-10,98,-31,40,-90,00,-8,85,-31,70,-89,82,-10,20
23854,-0,29,1,57,-10,98,-31,40,-90,00,-4,35,-31,65,-89,82,-9,32
23872,-0,29,1,27,-10,39,-25,40,-90,00,-4,35,-30,72,-89,82,-8,57
23888,0,00,1,27,-10,39,-25,40,-90,00,0,00,-29,92,-89,82,-7,29
23904,0,29,0,59,-10,39,-11,80,-90,00,4,35,-27,20,-89,82,-5,54
23921,0,29,0,59,-10,39,-11,80,-90,00,4,35,-24,89,-89,82,-4,06
23938,0,78,-0,29,-7,55,5,80,-90,00,11,70,-20,29,-89,82,-1,69
23954,0,78,-0,29,-12,15,5,80,-90,00,11,70,-16,37,-89,82,0,31
23971,-0,20,-0,10,-12,15,2,00,-90,00,-3,00,-13,62,-89,82,-0,18
23987,-0,20,-0,10,-12,15,2,00,-90,00,-3,00,-11,28,-89,82,-0,61
24003,-0,20,-0,10,-12,15,2,00,-90,00,-3,00,-9,28,-89,82,-0,96
24019,-0,20,0,78,-11,27,-15,60,-90,00,-3,00,-10,23,-89,82,-1,27
24035,0,29,0,78,-11,27,-15,60,-90,00,4,35,-11,04,-89,82,-0,43
24051,0,29,-0,98,-7,25,19,60,-90,00,4,35,-6,44,-89,82,0,29
24067,-0,88,-0,98,-7,25,19,60,-90,00,-13,20,-2,54,-89,82,-1,73
24083,0,29,-0,88,-8,33,17,60,-90,00,4,35,0,49,-89,82,-0,82
24100,0,29,-0,88,-8,33,17,60,-90,00,4,35,3,05,-89,82,-0,05
24116,-0,29,-0,49,-9,70,9,80,-90,00,-4,35,4,06,-89,82,-0,69
24132,-0,29,-0,49,-9,70,9,80,-90,00,-4,35,4,92,-89,82,-1,24
24148,-0,20,0,00,-9,31,-0,00,-90,00,-3,00,4,19,-89,82,-1,50
24164,-0,20,0,00,-11,27,-0,00,-90,00,-3,00,3,56,-89,82,-1,73
24180,0,59,0,20,-11,27,-4,00,-90,00,8,85,2,42,-89,82,-0,14
24196,0,59,0,20,-12,54,-4,00,-90,00,8,85,1,46,-89,82,1,21
24212,-1,27,0,20,-12,54,-4,00,-90,00,-19,05,0,64,-89,82,-1,83
24228,-1,27,0,20,-10,09,-4,00,-90,00,-19,05,-0,05,-89,82,-4,41
24244,-0,49,0,20,-10,09,-4,00,-90,00,-7,35,-0,65,-89,82,-4,85
24260,-0,49,0,20,-14,11,-4,00,-90,00,-7,35,-1,15,-89,82,-5,23
24276,0,49,0,20,-14,11,-4,00,-90,00,7,35,-1,58,-89,82,-3,34
24292,0,49,0,49,-9,51,-9,80,-90,00,7,35,-2,81,-89,82,-1,74
24308,-0,29,0,49,-9,51,-9,80,-90,00,-4,35,-3,86,-89,82,-2,13
24324,1,37,-0,39,-13,03,7,80,-90,00,20,55,-2,11,-89,82,1,27
24340,1,37,-0,39,-13,03,7,80,-90,00,20,55,-0,62,-89,82,4,16
24356,-0,29,-0,20,-8,23,4,00,-90,00,-4,35,0,07,-89,82,2,89
24372,-0,29,-0,20,-8,23,4,00,-90,00,-4,35,0,66,-89,82,1,80
24404,0,00,0,59,-10,39,-11,80,-90,00,0,00,-1,21,-89,82,1,53
24421,0,29,0,59,-10,39,-11,80,-90,00,4,35,-2,80,-89,82,1,95
24438,0,29,0,39,-10,09,-7,80,-90,00,4,35,-3,55,-89,82,2,31
24454,0,20,0,39,-10,09,-7,80,-90,00,3,00,-4,19,-89,82,2,42
24471,0,20,0,39,-10,09,-7,80,-90,00,3,00,-4,73,-89,82,2,50
24488,0,20,0,39,-10,09,-7,80,-90,00,3,00,-5,19,-89,82,2,58
24504,0,20,0,39,-10,09,-7,80,-90,00,3,00,-5,58,-89,82,2,64
24521,0,20,0,39,-10,09,-7,80,-90,00,3,00,-5,91,-89,82,2,70
24538,0,20,0,39,-10,09,-7,80,-90,00,3,00,-6,20,-89,82,2,74
24554,0,20,0,39,-10,00,-7,80,-90,00,3,00,-6,44,-89,82,2,78
24572,0,29,0,59,-10,00,-11,80,-90,00,4,35,-7,24,-89,82,3,02
24588,0,29,0,29,-10,19,-5,80,-90,00,4,35,-7,03,-89,82,3,22
24605,0,20,0,29,-10,19,-5,80,-90,00,3,00,-6,84,-89,82,3,18
24622,0,20,0,49,-10,19,-9,80,-90,00,3,00,-7,29,-89,82,3,18
24638,0,29,0,49,-10,19,-9,80,-90,00,4,35,-7,66,-89,82,3,36
24655,0,20,0,59,-10,00,-11,80,-90,00,3,00,-8,28,-89,82,3,30
24671,0,20,0,59,-10,00,-11,80,-90,00,3,00,-8,81,-89,82,3,26
24688,0,29,0,39,-10,09,-7,80,-90,00,4,35,-8,66,-89,82,3,42
24705,0,29,0,39,-10,00,-7,80,-90,00,4,35,-8,53,-89,82,3,56
24721,0,20,0,59,-10,00,-11,80,-90,00,3,00,-9,02,-89,82,3,48
24738,0,20,0,29,-10,00,-5,80,-90,00,3,00,-8,54,-89,82,3,41
24755,0,20,0,29,-10,00,-5,80,-90,00,3,00,-8,13,-89,82,3,34
24771,0,20,0,59,-10,00,-11,80,-90,00,3,00,-8,68,-89,82,3,29
24788,0,20,0,59,-10,00,-11,80,-90,00,3,00,-9,15,-89,82,3,25
24804,0,20,0,59,-10,00,-11,80,-90,00,3,00,-9,54,-89,82,3,21
24820,0,20,0,59,-10,00,-11,80,-90,00,3,00,-9,88,-89,82,3,18
24836,0,20,0,59,-10,00,-11,80,-90,00,3,00,-10,17,-89,82,3,18
24852,0,20,0,59,-10,00,-11,80,-90,00,3,00,-10,41,-89,82,3,18
24868,0,20,0,39,-10,09,-7,80,-90,00,3,00,-10,02,-89,82,3,18
24884,0,20,0,39,-10,00,-7,80,-90,00,3,00,-9,69,-89,82,3,18
24900,0,20,0,59,-10,00,-11,80,-90,00,3,00,-10,01,-89,82,3,18
24916,0,20,0,59,-10,00,-11,80,-90,00,3,00,-10,27,-89,82,3,18
24932,0,20,0,59,-10,00,-11,80,-90,00,3,00,-10,50,-89,82,3,18
24948,0,20,0,59,-10,00,-11,80,-90,00,3,00,-10,70,-89,82,3,18
24964,0,20,0,59,-10,00,-11,80,-90,00,3,00,-10,86,-89,82,3,18
24980,0,20,0,39,-10,09,-7,80,-90,00,3,00,-10,40,-89,82,3,18
24996,0,20,0,39,-10,09,-7,80,-90,00,3,00,-10,01,-89,82,3,18
25012,0,20,0,39,-10,09,-7,80,-90,00,3,00,-9,68,-89,82,3,18
25028,0,20,0,39,-10,09,-7,80,-90,00,3,00,-9,40,-89,82,3,18
25044,0,29,0,49,-10,19,-9,80,-90,00,4,35,-9,46,-89,82,3,36
25060,0,29,0,49,-10,19,-9,80,-90,00,4,35,-9,51,-89,82,3,50
25076,0,29,0,49,-10,19,-9,80,-90,00,4,35,-9,55,-89,82,3,63
25092,0,29,0,49,-10,19,-9,80,-90,00,4,35,-9,59,-89,82,3,74
25108,0,20,0,49,-9,90,-9,80,-90,00,3,00,-9,62,-89,82,3,63
25124,0,20,0,49,-9,90,-9,80,-90,00,3,00,-9,62,-89,82,3,53
25140,0,20,0,20,-9,90,-4,00,-90,00,3,00,-8,78,-89,82,3,45
25156,0,20,0,20,-10,58,-4,00,-90,00,3,00,-8,06,-89,82,3,39
25172,-0,88,1,27,-10,58,-25,40,-90,00,-13,20,-10,66,-89,82,0,90
25204,0,59,0,98,-9,80,-19,60,-90,00,8,85,-12,00,-89,82,2,09
25220,0,59,1,27,-10,58,-25,40,-90,00,8,85,-14,01,-89,82,3,10
25236,0,00,1,27,-10,58,-25,40,-90,00,0,00,-15,72,-89,82,2,64
25252,0,00,0,98,-10,29,-19,60,-90,00,0,00,-16,30,-89,82,2,24
25268,0,20,0,98,-10,29,-19,60,-90,00,3,00,-16,80,-89,82,2,36
25284,-0,20,0,59,-10,00,-11,80,-90,00,-3,00,-16,05,-89,82,1,55
25300,-0,20,0,59,-10,00,-11,80,-90,00,-3,00,-15,41,-89,82,0,87
25316,1,67,0,00,-10,29,-0,00,-90,00,25,05,-13,10,-89,82,4,50
25332,1,67,0,00,-10,29,-0,00,-90,00,25,05,-11,13,-89,82,7,58
25348,0,20,0,78,-10,00,-15,60,-90,00,3,00,-11,80,-89,82,6,89
25364,0,20,0,78,-10,09,-15,60,-90,00,3,00,-12,37,-89,82,6,31
25380,0,20,0,69,-10,09,-13,80,-90,00,3,00,-12,59,-89,82,5,81
25396,0,20,0,69,-10,00,-13,80,-90,00,3,00,-12,77,-89,82,5,39
25412,0,20,0,78,-10,00,-15,60,-90,00,3,00,-13,19,-89,82,5,03
25428,0,20,0,69,-9,90,-13,80,-90,00,3,00,-13,28,-89,82,4,73
25444,0,20,0,69,-9,90,-13,80,-90,00,3,00,-13,36,-89,82,4,47
25460,0,20,0,69,-10,09,-13,80,-90,00,3,00,-13,43,-89,82,4,25
25476,0,20,0,69,-10,09,-13,80,-90,00,3,00,-13,48,-89,82,4,06
25505,0,20,0,69,-10,09,-13,80,-90,00,3,00,-13,53,-89,82,3,90
25521,0,20,0,59,-10,00,-11,80,-90,00,3,00,-13,27,-89,82,3,77
25538,0,20,0,59,-10,00,-11,80,-90,00,3,00,-13,05,-89,82,3,65
25555,0,20,0,78,-10,00,-15,60,-90,00,3,00,-13,43,-89,82,3,55
25571,0,20,0,78,-10,00,-15,60,-90,00,3,00,-13,76,-89,82,3,47
25587,0,20,0,78,-10,00,-15,60,-90,00,3,00,-14,03,-89,82,3,40
25603,0,20,0,78,-10,00,-15,60,-90,00,3,00,-14,27,-89,82,3,34
25619,0,29,0,59,-10,00,-11,80,-90,00,4,35,-13,90,-89,82,3,49
25635,0,29,0,59,-10,00,-11,80,-90,00,4,35,-13,58,-89,82,3,62
25651,0,20,0,78,-10,00,-15,60,-90,00,3,00,-13,89,-89,82,3,53
25667,0,20,0,78,-10,00,-15,60,-90,00,3,00,-14,14,-89,82,3,45
25683,0,20,0,59,-10,00,-11,80,-90,00,3,00,-13,79,-89,82,3,38
25699,0,20,0,78,-10,00,-15,60,-90,00,3,00,-14,06,-89,82,3,32
25715,0,20,0,78,-10,00,-15,60,-90,00,3,00,-14,29,-89,82,3,28
25731,0,20,0,69,-10,09,-13,80,-90,00,3,00,-14,22,-89,82,3,23
25747,0,20,0,69,-10,09,-13,80,-90,00,3,00,-14,16,-89,82,3,20
25763,0,00,0,69,-10,09,-13,80,-90,00,0,00,-14,10,-89,82,2,72
25779,0,00,0,69,-10,09,-13,80,-90,00,0,00,-14,06,-89,82,2,31
25795,0,20,0,69,-9,90,-13,80,-90,00,3,00,-14,02,-89,82,2,41
25811,0,20,0,69,-9,90,-13,80,-90,00,3,00,-13,99,-89,82,2,50
25827,0,20,0,59,-10,00,-11,80,-90,00,3,00,-13,66,-89,82,2,58
25843,0,20,0,59,-10,09,-11,80,-90,00,3,00,-13,38,-89,82,2,64
25859,0,20,0,69,-10,09,-13,80,-90,00,3,00,-13,44,-89,82,2,69
25875,0,20,0,69,-10,09,-13,80,-90,00,3,00,-13,50,-89,82,2,74
25891,0,20,0,69,-10,09,-13,80,-90,00,3,00,-13,54,-89,82,2,78
25907,0,20,0,69,-10,09,-13,80,-90,00,3,00,-13,58,-89,82,2,81
25923,0,20,0,69,-10,09,-13,80,-90,00,3,00,-13,61,-89,82,2,81
25940,0,20,0,78,-10,00,-15,60,-90,00,3,00,-13,91,-89,82,2,81
25971,0,20,0,69,-10,09,-13,80,-90,00,3,00,-13,91,-89,82,2,81
25987,0,20,0,69,-10,09,-13,80,-90,00,3,00,-13,91,-89,82,2,81
26003,0,20,0,69,-10,09,-13,80,-90,00,3,00,-13,91,-89,82,2,81
26020,0,20,0,69,-10,09,-13,80,-90,00,3,00,-13,91,-89,82,2,81
26036,0,20,0,78,-10,00,-15,60,-90,00,3,00,-14,16,-89,82,2,81
26051,0,20,0,78,-10,00,-15,60,-90,00,3,00,-14,38,-89,82,2,81
26067,0,20,0,78,-10,00,-15,60,-90,00,3,00,-14,56,-89,82,2,81
26083,0,20,0,78,-10,09,-15,60,-90,00,3,00,-14,72,-89,82,2,81
26099,0,20,0,69,-10,09,-13,80,-90,00,3,00,-14,58,-89,82,2,81
26115,0,20,0,69,-9,90,-13,80,-90,00,3,00,-14,46,-89,82,2,81
26131,0,20,0,69,-9,90,-13,80,-90,00,3,00,-14,36,-89,82,2,81
26148,0,20,0,69,-10,00,-13,80,-90,00,3,00,-14,28,-89,82,2,81
26164,0,20,0,78,-10,00,-15,60,-90,00,3,00,-14,48,-89,82,2,81
26180,0,20,0,78,-10,00,-15,60,-90,00,3,00,-14,65,-89,82,2,81
26196,0,20,0,78,-10,00,-15,60,-90,00,3,00,-14,79,-89,82,2,81
26212,0,20,0,78,-10,00,-15,60,-90,00,3,00,-14,91,-89,82,2,81
26228,0,29,0,78,-10,00,-15,60,-90,00,4,35,-15,01,-89,82,3,04
26244,0,20,0,78,-10,00,-15,60,-90,00,3,00,-15,10,-89,82,3,04
26260,0,20,0,78,-10,00,-15,60,-90,00,3,00,-15,18,-89,82,3,04
26276,0,20,0,78,-10,00,-15,60,-90,00,3,00,-15,24,-89,82,3,04
26292,0,20,0,78,-10,00,-15,60,-90,00,3,00,-15,29,-89,82,3,04
26308,0,20,0,78,-10,00,-15,60,-90,00,3,00,-15,34,-89,82,3,04
26324,0,20,0,78,-10,09,-15,60,-90,00,3,00,-15,38,-89,82,3,04
26340,0,20,0,69,-10,09,-13,80,-90,00,3,00,-15,14,-89,82,3,04
26356,0,20,0,69,-10,00,-13,80,-90,00,3,00,-14,94,-89,82,3,04
26372,0,20,0,78,-10,00,-15,60,-90,00,3,00,-15,04,-89,82,3,04
26403,0,20,0,69,-10,09,-13,80,-90,00,3,00,-14,85,-89,82,3,04
26419,0,20,0,78,-10,00,-15,60,-90,00,3,00,-14,97,-89,82,3,04
26435,0,29,0,78,-10,00,-15,60,-90,00,4,35,-15,06,-89,82,3,24
26452,0,29,0,69,-9,90,-13,80,-90,00,4,35,-14,87,-89,82,3,41
26468,0,20,0,69,-9,90,-13,80,-90,00,3,00,-14,71,-89,82,3,34
26484,0,20,0,78,-10,00,-15,60,-90,00,3,00,-14,84,-89,82,3,29
26500,0,20,0,78,-10,00,-15,60,-90,00,3,00,-14,96,-89,82,3,25
26516,0,20,0,78,-10,00,-15,60,-90,00,3,00,-15,05,-89,82,3,21
26532,0,20,0,78,-10,00,-15,60,-90,00,3,00,-15,14,-89,82,3,18
26548,0,20,0,69,-10,09,-13,80,-90,00,3,00,-14,94,-89,82,3,18
26564,0,20,0,69,-10,09,-13,80,-90,00,3,00,-14,77,-89,82,3,18
26580,0,20,0,69,-10,09,-13,80,-90,00,3,00,-14,62,-89,82,3,18
26596,0,20,0,69,-10,00,-13,80,-90,00,3,00,-14,50,-89,82,3,18
26612,0,20,0,78,-10,00,-15,60,-90,00,3,00,-14,66,-89,82,3,18
26628,0,20,0,78,-10,29,-15,60,-90,00,3,00,-14,80,-89,82,3,18
26644,0,20,0,78,-10,29,-15,60,-90,00,3,00,-14,92,-89,82,3,18
26660,0,20,0,69,-10,09,-13,80,-90,00,3,00,-14,75,-89,82,3,18
26676,0,29,0,69,-10,09,-13,80,-90,00,4,35,-14,61,-89,82,3,36
26692,0,29,0,69,-10,09,-13,80,-90,00,4,35,-14,49,-89,82,3,50
26708,0,20,0,69,-10,09,-13,80,-90,00,3,00,-14,39,-89,82,3,43
26724,0,20,0,78,-10,00,-15,60,-90,00,3,00,-14,57,-89,82,3,36
26740,0,20,0,78,-10,00,-15,60,-90,00,3,00,-14,72,-89,82,3,31
26756,0,20,0,78,-10,00,-15,60,-90,00,3,00,-14,85,-89,82,3,26
26772,0,20,0,78,-10,00,-15,60,-90,00,3,00,-14,97,-89,82,3,22
26804,0,20,0,78,-10,09,-15,60,-90,00,3,00,-15,06,-89,82,3,19
26820,0,20,0,69,-10,09,-13,80,-90,00,3,00,-14,87,-89,82,3,19
26836,0,20,0,69,-9,90,-13,80,-90,00,3,00,-14,71,-89,82,3,19
26852,0,20,0,69,-9,90,-13,80,-90,00,3,00,-14,57,-89,82,3,19
26868,0,20,0,78,-10,00,-15,60,-90,00,3,00,-14,73,-89,82,3,19
26884,0,20,0,78,-10,00,-15,60,-90,00,3,00,-14,86,-89,82,3,19
26900,0,20,0,78,-10,00,-15,60,-90,00,3,00,-14,97,-89,82,3,19
26916,0,00,0,78,-10,00,-15,60,-90,00,0,00,-15,06,-89,82,2,71
26932,0,00,0,69,-10,09,-13,80,-90,00,0,00,-14,88,-89,82,2,31
26948,0,20,0,69,-10,09,-13,80,-90,00,3,00,-14,71,-89,82,2,41
26964,0,20,0,69,-10,09,-13,80,-90,00,3,00,-14,58,-89,82,2,50
26980,0,20,0,69,-10,09,-13,80,-90,00,3,00,-14,46,-89,82,2,57
26996,0,20,0,69,-9,90,-13,80,-90,00,3,00,-14,36,-89,82,2,64
27012,0,20,0,69,-9,90,-13,80,-90,00,3,00,-14,28,-89,82,2,69
27028,0,20,0,69,-9,90,-13,80,-90,00,3,00,-14,21,-89,82,2,74
27044,0,20,0,69,-10,00,-13,80,-90,00,3,00,-14,14,-89,82,2,78
27060,0,00,0,59,-10,00,-11,80,-90,00,0,00,-13,79,-89,82,2,36
27076,0,00,0,59,-10,09,-11,80,-90,00,0,00,-13,49,-89,82,2,01
27092,0,20,0,69,-10,09,-13,80,-90,00,3,00,-13,54,-89,82,2,16
27108,0,20,0,78,-10,00,-15,60,-90,00,3,00,-13,85,-89,82,2,28
27124,0,20,0,78,-10,00,-15,60,-90,00,3,00,-14,11,-89,82,2,39
27140,0,20,0,59,-10,00,-11,80,-90,00,3,00,-13,76,-89,82,2,48
27156,0,20,0,59,-10,00,-11,80,-90,00,3,00,-13,47,-89,82,2,56
27172,0,20,0,78,-10,00,-15,60,-90,00,3,00,-13,79,-89,82,2,63
27203,0,20,0,69,-10,09,-13,80,-90,00,3,00,-13,79,-89,82,2,68
27219,0,20,0,69,-10,09,-13,80,-90,00,3,00,-13,79,-89,82,2,73
27235,0,20,0,69,-10,09,-13,80,-90,00,3,00,-13,79,-89,82,2,77
27251,0,20,0,69,-10,09,-13,80,-90,00,3,00,-13,79,-89,82,2,80
27268,0,29,0,69,-9,90,-13,80,-90,00,4,35,-13,79,-89,82,3,04
27283,0,29,0,69,-10,00,-13,80,-90,00,4,35,-13,79,-89,82,3,23
27299,0,20,0,78,-10,00,-15,60,-90,00,3,00,-14,06,-89,82,3,20
27315,0,20,0,78,-10,00,-15,60,-90,00,3,00,-14,29,-89,82,3,20
27331,0,20,0,78,-10,00,-15,60,-90,00,3,00,-14,49,-89,82,3,20
27347,0,20,0,78,-9,90,-15,60,-90,00,3,00,-14,65,-89,82,3,20
27363,0,29,0,69,-9,90,-13,80,-90,00,4,35,-14,53,-89,82,3,37
27379,0,29,0,88,-10,19,-17,60,-90,00,4,35,-14,99,-89,82,3,52
27395,0,20,0,88,-10,19,-17,60,-90,00,3,00,-15,38,-89,82,3,44
27411,0,20,0,88,-10,19,-17,60,-90,00,3,00,-15,71,-89,82,3,37
27427,0,20,0,88,-10,19,-17,60,-90,00,3,00,-16,00,-89,82,3,32
27443,0,20,0,39,-10,98,-7,80,-90,00,3,00,-14,77,-89,82,3,27
27459,-1,67,0,39,-10,98,-7,80,-90,00,-25,05,-13,72,-89,82,-0,98
27475,-0,20,0,69,-9,90,-13,80,-90,00,-3,00,-13,72,-89,82,-1,28
27491,-0,20,0,69,-9,90,-13,80,-90,00,-3,00,-13,72,-89,82,-1,54
27507,-0,20,0,69,-9,90,-13,80,-90,00,-3,00,-13,72,-89,82,-1,76
27523,-0,20,0,69,-9,90,-13,80,-90,00,-3,00,-13,72,-89,82,-1,94
27539,0,20,0,49,-9,90,-9,80,-90,00,3,00,-13,13,-89,82,-1,20
27555,0,20,0,49,-10,49,-9,80,-90,00,3,00,-12,63,-89,82,-0,57
27587,0,00,0,59,-10,00,-11,80,-90,00,0,00,-12,51,-89,82,-0,49
27604,0,20,0,59,-10,00,-11,80,-90,00,3,00,-12,40,-89,82,0,04
27621,0,20,0,69,-10,09,-13,80,-90,00,3,00,-12,61,-89,82,0,48
27638,0,20,0,69,-10,09,-13,80,-90,00,3,00,-12,79,-89,82,0,86
27655,0,20,0,78,-10,00,-15,60,-90,00,3,00,-13,21,-89,82,1,18
27671,0,20,0,78,-10,00,-15,60,-90,00,3,00,-13,57,-89,82,1,45
27688,0,20,0,69,-9,90,-13,80,-90,00,3,00,-13,60,-89,82,1,69
27705,0,20,0,69,-10,00,-13,80,-90,00,3,00,-13,60,-89,82,1,88
27722,0,20,0,78,-10,00,-15,60,-90,00,3,00,-13,90,-89,82,2,05
27738,0,20,0,69,-10,09,-13,80,-90,00,3,00,-13,90,-89,82,2,19
27755,0,20,0,69,-10,09,-13,80,-90,00,3,00,-13,90,-89,82,2,31
27771,0,20,0,69,-9,90,-13,80,-90,00,3,00,-13,90,-89,82,2,42
27788,0,29,0,69,-9,90,-13,80,-90,00,4,35,-13,90,-89,82,2,71
27805,0,20,0,88,-10,19,-17,60,-90,00,3,00,-14,46,-89,82,2,75
27821,0,20,0,88,-10,19,-17,60,-90,00,3,00,-14,93,-89,82,2,79
27838,0,20,0,69,-10,09,-13,80,-90,00,3,00,-14,76,-89,82,2,82
27854,0,20,0,69,-9,90,-13,80,-90,00,3,00,-14,62,-89,82,2,82
27871,0,20,0,69,-9,90,-13,80,-90,00,3,00,-14,49,-89,82,2,82
27888,0,20,0,69,-10,00,-13,80,-90,00,3,00,-14,39,-89,82,2,82
27905,0,29,0,78,-10,00,-15,60,-90,00,4,35,-14,57,-89,82,3,05
27921,0,29,0,69,-10,09,-13,80,-90,00,4,35,-14,46,-89,82,3,24
27938,0,20,0,69,-10,09,-13,80,-90,00,3,00,-14,36,-89,82,3,21
27954,0,20,0,78,-10,00,-15,60,-90,00,3,00,-14,54,-89,82,3,18
27971,0,20,0,78,-10,00,-15,60,-90,00,3,00,-14,70,-89,82,3,18
27987,0,20,0,78,-10,00,-15,60,-90,00,3,00,-14,84,-89,82,3,18
28004,0,20,0,78,-10,00,-15,60,-90,00,3,00,-14,95,-89,82,3,18
28020,0,20,0,78,-10,00,-15,60,-90,00,3,00,-15,05,-89,82,3,18
28036,0,20,0,78,-10,00,-15,60,-90,00,3,00,-15,13,-89,82,3,18
28052,0,20,0,78,-10,00,-15,60,-90,00,3,00,-15,20,-89,82,3,18
28068,0,20,0,78,-10,00,-15,60,-90,00,3,00,-15,26,-89,82,3,18
28084,0,29,0,78,-10,00,-15,60,-90,00,4,35,-15,31,-89,82,3,35
28100,0,29,0,88,-10,19,-17,60,-90,00,4,35,-15,66,-89,82,3,50
28121,0,20,0,88,-10,19,-17,60,-90,00,3,00,-15,95,-89,82,3,43
28138,0,29,0,69,-9,90,-13,80,-90,00,4,35,-15,62,-89,82,3,57
28155,0,29,0,69,-9,90,-13,80,-90,00,4,35,-15,35,-89,82,3,68
28171,0,20,0,69,-9,90,-13,80,-90,00,3,00,-15,12,-89,82,3,58
28188,0,20,0,69,-10,00,-13,80,-90,00,3,00,-14,92,-89,82,3,49
28205,0,20,0,59,-10,00,-11,80,-90,00,3,00,-14,45,-89,82,3,42
28221,0,20,0,78,-10,00,-15,60,-90,00,3,00,-14,62,-89,82,3,36
28237,0,20,0,78,-10,00,-15,60,-90,00,3,00,-14,77,-89,82,3,30
28254,0,20,0,78,-10,00,-15,60,-90,00,3,00,-14,90,-89,82,3,26
28271,0,20,0,78,-10,00,-15,60,-90,00,3,00,-15,00,-89,82,3,22
28287,0,00,0,69,-10,09,-13,80,-90,00,0,00,-14,82,-89,82,2,74
28305,0,00,0,69,-10,00,-13,80,-90,00,0,00,-14,67,-89,82,2,33
28321,0,20,0,78,-10,00,-15,60,-90,00,3,00,-14,81,-89,82,2,43
28338,0,20,0,78,-10,00,-15,60,-90,00,3,00,-14,93,-89,82,2,51
28355,0,20,0,78,-10,00,-15,60,-90,00,3,00,-15,03,-89,82,2,59
28371,0,20,0,78,-10,00,-15,60,-90,00,3,00,-15,11,-89,82,2,65
28388,0,20,0,78,-10,00,-15,60,-90,00,3,00,-15,19,-89,82,2,70
28404,-0,88,1,18,-10,49,-23,60,-90,00,-13,20,-16,45,-89,82,0,32
28420,-0,88,1,18,-10,49,-23,60,-90,00,-13,20,-17,52,-89,82,-1,71
28436,0,29,0,59,-10,00,-11,80,-90,00,4,35,-16,66,-89,82,-0,80
28452,0,29,0,59,-10,00,-11,80,-90,00,4,35,-15,93,-89,82,-0,03
28468,-0,20,0,59,-10,00,-11,80,-90,00,-3,00,-15,31,-89,82,-0,48
28484,-0,20,0,59,-10,00,-11,80,-90,00,-3,00,-14,79,-89,82,-0,85
28500,-0,20,0,59,-10,00,-11,80,-90,00,-3,00,-14,34,-89,82,-1,18
28516,-0,20,0,59,-10,00,-11,80,-90,00,-3,00,-13,96,-89,82,-1,45
28532,0,20,0,78,-10,00,-15,60,-90,00,3,00,-14,20,-89,82,-0,78
28548,0,20,0,78,-10,19,-15,60,-90,00,3,00,-14,41,-89,82,-0,21
28564,0,59,0,88,-10,19,-17,60,-90,00,8,85,-14,89,-89,82,1,15
28580,0,59,0,88,-9,90,-17,60,-90,00,8,85,-15,30,-89,82,2,30
28596,0,88,0,88,-9,90,-17,60,-90,00,13,20,-15,64,-89,82,3,94
28612,0,88,0,78,-9,60,-15,60,-90,00,13,20,-15,64,-89,82,5,33
28628,-0,29,0,78,-9,60,-15,60,-90,00,-4,35,-15,64,-89,82,3,87
28644,0,00,0,59,-10,78,-11,80,-90,00,0,00,-15,07,-89,82,3,29
28660,0,00,0,59,-10,78,-11,80,-90,00,0,00,-14,58,-89,82,2,80
28676,0,29,0,69,-9,90,-13,80,-90,00,4,35,-14,46,-89,82,3,03
28692,0,29,0,69,-9,90,-13,80,-90,00,4,35,-14,36,-89,82,3,23
28708,0,20,0,88,-10,19,-17,60,-90,00,3,00,-14,85,-89,82,3,19
28724,0,20,0,88,-10,00,-17,60,-90,00,3,00,-15,26,-89,82,3,19
28740,0,20,0,78,-10,00,-15,60,-90,00,3,00,-15,31,-89,82,3,19
28756,0,20,0,78,-10,00,-15,60,-90,00,3,00,-15,35,-89,82,3,19
28772,0,20,0,78,-10,00,-15,60,-90,00,3,00,-15,39,-89,82,3,19
28804,0,00,0,78,-10,00,-15,60,-90,00,0,00,-15,42,-89,82,2,72
28820,0,00,0,69,-9,90,-13,80,-90,00,0,00,-15,18,-89,82,2,31
28836,0,78,0,69,-9,90,-13,80,-90,00,11,70,-14,97,-89,82,3,72
28852,0,78,0,29,-10,39,-5,80,-90,00,11,70,-13,60,-89,82,4,91
28868,0,00,0,29,-10,39,-5,80,-90,00,0,00,-12,43,-89,82,4,18
28884,-0,20,0,78,-9,60,-15,60,-90,00,-3,00,-12,90,-89,82,3,10
28900,-0,20,0,78,-9,60,-15,60,-90,00,-3,00,-13,31,-89,82,2,19
28916,0,49,1,57,-9,11,-31,40,-90,00,7,35,-16,02,-89,82,2,96
28932,0,49,1,57,-9,11,-31,40,-90,00,7,35,-18,33,-89,82,3,62
28948,0,20,1,08,-10,39,-21,60,-90,00,3,00,-18,82,-89,82,3,53
28964,0,20,1,08,-10,29,-21,60,-90,00,3,00,-19,24,-89,82,3,45
28980,0,49,0,98,-10,29,-19,60,-90,00,7,35,-19,29,-89,82,4,03
28996,0,49,0,98,-10,29,-19,60,-90,00,7,35,-19,34,-89,82,4,53
29012,0,49,0,98,-10,29,-19,60,-90,00,7,35,-19,38,-89,82,4,95
29028,0,49,0,98,-10,00,-19,60,-90,00,7,35,-19,41,-89,82,5,31
29044,0,29,0,78,-10,00,-15,60,-90,00,4,35,-18,84,-89,82,5,17
29060,0,29,0,98,-10,49,-19,60,-90,00,4,35,-18,95,-89,82,5,05
29076,0,00,0,98,-10,49,-19,60,-90,00,0,00,-19,05,-89,82,4,29
29092,0,00,0,59,-10,00,-11,80,-90,00,0,00,-17,96,-89,82,3,65
29108,0,20,0,59,-10,00,-11,80,-90,00,3,00,-17,04,-89,82,3,55
29124,0,29,0,69,-9,90,-13,80,-90,00,4,35,-16,55,-89,82,3,67
29140,0,29,0,69,-9,90,-13,80,-90,00,4,35,-16,14,-89,82,3,77
29156,0,29,0,49,-9,90,-9,80,-90,00,4,35,-15,19,-89,82,3,86
29172,0,29,0,49,-9,90,-9,80,-90,00,4,35,-14,38,-89,82,3,93
29188,0,29,0,59,-9,80,-11,80,-90,00,4,35,-13,99,-89,82,3,99
29219,0,20,0,39,-9,60,-7,80,-90,00,3,00,-13,06,-89,82,3,85
29235,0,20,0,39,-9,80,-7,80,-90,00,3,00,-12,27,-89,82,3,72
29251,0,20,0,59,-9,80,-11,80,-90,00,3,00,-12,20,-89,82,3,61
29267,0,20,0,59,-10,68,-11,80,-90,00,3,00,-12,14,-89,82,3,52
29283,-0,20,0,69,-10,68,-13,80,-90,00,-3,00,-12,39,-89,82,2,54
29299,-0,20,0,98,-10,09,-19,60,-90,00,-3,00,-13,47,-89,82,1,71
29315,0,49,0,98,-10,09,-19,60,-90,00,7,35,-14,39,-89,82,2,56
29331,0,49,0,98,-10,09,-19,60,-90,00,7,35,-15,17,-89,82,3,28
29347,0,49,0,98,-10,09,-19,60,-90,00,7,35,-15,84,-89,82,3,89
29363,0,29,0,88,-9,90,-17,60,-90,00,4,35,-16,10,-89,82,3,96
29380,0,29,0,88,-9,90,-17,60,-90,00,4,35,-16,33,-89,82,4,02
29396,0,20,0,78,-10,00,-15,60,-90,00,3,00,-16,22,-89,82,3,86
29412,0,20,0,78,-10,00,-15,60,-90,00,3,00,-16,12,-89,82,3,73
29428,0,20,0,78,-10,00,-15,60,-90,00,3,00,-16,05,-89,82,3,62
29444,0,20,0,78,-10,00,-15,60,-90,00,3,00,-15,98,-89,82,3,53
29460,0,20,0,78,-10,00,-15,60,-90,00,3,00,-15,92,-89,82,3,45
29476,0,20,0,78,-10,00,-15,60,-90,00,3,00,-15,87,-89,82,3,38
29492,0,20,0,78,-10,00,-15,60,-90,00,3,00,-15,83,-89,82,3,33
29508,0,20,0,78,-10,00,-15,60,-90,00,3,00,-15,80,-89,82,3,28
29524,0,20,0,78,-10,00,-15,60,-90,00,3,00,-15,80,-89,82,3,24
29540,0,20,0,78,-10,00,-15,60,-90,00,3,00,-15,80,-89,82,3,20
29556,0,20,0,78,-10,00,-15,60,-90,00,3,00,-15,80,-89,82,3,20
29571,0,20,0,69,-10,09,-13,80,-90,00,3,00,-15,50,-89,82,3,20
29588,0,20,0,69,-10,09,-13,80,-90,00,3,00,-15,24,-89,82,3,20
29604,0,20,0,69,-10,09,-13,80,-90,00,3,00,-15,03,-89,82,3,20
29620,0,20,0,69,-10,09,-13,80,-90,00,3,00,-14,84,-89,82,3,20
29636,0,20,0,78,-10,00,-15,60,-90,00,3,00,-14,96,-89,82,3,20
29652,0,20,0,78,-10,00,-15,60,-90,00,3,00,-15,05,-89,82,3,20
29668,0,20,0,78,-10,00,-15,60,-90,00,3,00,-15,14,-89,82,3,20
29684,0,20,0,78,-10,09,-15,60,-90,00,3,00,-15,20,-89,82,3,20
29700,0,20,0,69,-10,09,-13,80,-90,00,3,00,-14,99,-89,82,3,20
29717,0,20,0,69,-10,09,-13,80,-90,00,3,00,-14,81,-89,82,3,20
29738,0,20,0,69,-10,09,-13,80,-90,00,3,00,-14,66,-89,82,3,20
29754,0,20,0,69,-10,09,-13,80,-90,00,3,00,-14,53,-89,82,3,20
29771,0,20,0,69,-10,09,-13,80,-90,00,3,00,-14,42,-89,82,3,20
29788,0,20,0,69,-9,90,-13,80,-90,00,3,00,-14,33,-89,82,3,20
29804,0,20,0,69,-9,90,-13,80,-90,00,3,00,-14,25,-89,82,3,20
29821,0,20,0,69,-9,90,-13,80,-90,00,3,00,-14,18,-89,82,3,20
29838,0,20,0,59,-10,00,-11,80,-90,00,3,00,-13,83,-89,82,3,20
29854,0,29,0,59,-10,00,-11,80,-90,00,4,35,-13,52,-89,82,3,37
29871,0,29,0,88,-9,90,-17,60,-90,00,4,35,-14,13,-89,82,3,52
29888,-0,29,0,88,-9,90,-17,60,-90,00,-4,35,-14,65,-89,82,2,34
29905,-0,29,0,69,-10,09,-13,80,-90,00,-4,35,-14,53,-89,82,1,34
29922,-0,29,0,69,-10,09,-13,80,-90,00,-4,35,-14,42,-89,82,0,48
29938,0,29,0,88,-10,19,-17,60,-90,00,4,35,-14,89,-89,82,1,06
29954,0,29,0,88,-10,00,-17,60,-90,00,4,35,-15,30,-89,82,1,56
29971,0,29,0,59,-10,00,-11,80,-90,00,4,35,-14,77,-89,82,1,97
29988,0,29,0,78,-10,00,-15,60,-90,00,4,35,-14,90,-89,82,2,33
30004,0,20,0,78,-10,00,-15,60,-90,00,3,00,-15,00,-89,82,2,43
30020,0,20,0,78,-10,00,-15,60,-90,00,3,00,-15,09,-89,82,2,52
30036,0,20,0,78,-10,00,-15,60,-90,00,3,00,-15,17,-89,82,2,59
30052,0,20,0,59,-10,00,-11,80,-90,00,3,00,-14,66,-89,82,2,65
30068,0,49,0,59,-10,00,-11,80,-90,00,7,35,-14,23,-89,82,3,36
30084,0,78,0,59,-10,00,-11,80,-90,00,11,70,-13,87,-89,82,4,61
30100,0,78,0,59,-10,00,-11,80,-90,00,11,70,-13,56,-89,82,5,67
30116,0,00,0,59,-10,39,-11,80,-90,00,0,00,-13,29,-89,82,4,82
30132,0,00,0,59,-10,39,-11,80,-90,00,0,00,-13,07,-89,82,4,10
30148,-2,16,0,59,-10,39,-11,80,-90,00,-32,40,-12,88,-89,82,-1,38
30164,-2,16,0,59,-10,09,-11,80,-90,00,-32,40,-12,72,-89,82,-6,03
30180,0,78,0,69,-10,09,-13,80,-90,00,11,70,-12,88,-89,82,-3,37
30196,0,78,0,69,-10,19,-13,80,-90,00,11,70,-13,02,-89,82,-1,11
30212,0,29,0,49,-10,19,-9,80,-90,00,4,35,-12,54,-89,82,-0,29
30228,0,29,0,49,-9,90,-9,80,-90,00,4,35,-12,13,-89,82,0,40
30244,0,20,0,69,-9,90,-13,80,-90,00,3,00,-12,38,-89,82,0,79
30260,0,20,0,29,-10,00,-5,80,-90,00,3,00,-11,39,-89,82,1,13
30276,0,20,0,29,-10,00,-5,80,-90,00,3,00,-10,55,-89,82,1,41
30292,0,20,0,98,-10,49,-19,60,-90,00,3,00,-11,91,-89,82,1,65
30309,0,78,0,98,-10,49,-19,60,-90,00,11,70,-13,06,-89,82,3,15
30338,0,29,0,78,-10,00,-15,60,-90,00,4,35,-13,44,-89,82,3,33
30354,0,00,0,98,-10,29,-19,60,-90,00,0,00,-14,37,-89,82,2,83
30371,0,00,0,98,-10,29,-19,60,-90,00,0,00,-15,15,-89,82,2,41
30387,0,20,0,59,-10,00,-11,80,-90,00,3,00,-14,65,-89,82,2,50
30403,0,20,0,59,-10,00,-11,80,-90,00,3,00,-14,22,-89,82,2,57
30419,0,20,0,78,-10,00,-15,60,-90,00,3,00,-14,43,-89,82,2,64
30435,0,20,0,78,-10,19,-15,60,-90,00,3,00,-14,60,-89,82,2,69
30451,0,29,0,88,-10,19,-17,60,-90,00,4,35,-15,05,-89,82,2,94
30467,0,29,0,88,-10,09,-17,60,-90,00,4,35,-15,44,-89,82,3,15
30483,0,20,0,69,-10,09,-13,80,-90,00,3,00,-15,19,-89,82,3,15
30499,0,20,0,69,-10,09,-13,80,-90,00,3,00,-14,98,-89,82,3,15
30515,0,20,0,69,-10,09,-13,80,-90,00,3,00,-14,80,-89,82,3,15
30531,0,20,0,69,-10,09,-13,80,-90,00,3,00,-14,65,-89,82,3,15
30547,0,00,0,69,-10,09,-13,80,-90,00,0,00,-14,53,-89,82,2,68
30563,0,20,0,78,-10,00,-15,60,-90,00,3,00,-14,69,-89,82,2,73
30579,0,20,0,78,-10,00,-15,60,-90,00,3,00,-14,82,-89,82,2,77
30595,0,20,0,88,-9,90,-17,60,-90,00,3,00,-15,24,-89,82,2,80
30626,0,20,0,88,-9,90,-17,60,-90,00,3,00,-15,59,-89,82,2,80
30644,0,20,0,88,-9,80,-17,60,-90,00,3,00,-15,90,-89,82,2,80
30669,0,49,0,78,-9,80,-15,60,-90,00,7,35,-15,85,-89,82,3,48
30688,0,20,0,69,-9,70,-13,80,-90,00,3,00,-15,54,-89,82,3,41
30704,0,20,0,69,-9,90,-13,80,-90,00,3,00,-15,28,-89,82,3,35
30720,0,20,0,88,-9,90,-17,60,-90,00,3,00,-15,63,-89,82,3,30
30738,0,20,0,88,-9,90,-17,60,-90,00,3,00,-15,93,-89,82,3,25
30754,0,20,0,88,-9,90,-17,60,-90,00,3,00,-16,18,-89,82,3,22
30773,0,20,1,08,-10,19,-21,60,-90,00,3,00,-16,99,-89,82,3,18
30790,-0,29,1,08,-10,19,-21,60,-90,00,-4,35,-17,68,-89,82,2,05
30807,-0,20,1,27,-10,00,-25,40,-90,00,-3,00,-18,84,-89,82,1,29
30823,-0,20,1,27,-9,90,-25,40,-90,00,-3,00,-19,82,-89,82,0,65
30839,-0,20,1,18,-9,90,-23,60,-90,00,-3,00,-20,39,-89,82,0,10
30855,-0,20,1,18,-10,39,-23,60,-90,00,-3,00,-20,87,-89,82,-0,36
30870,-0,59,1,08,-10,39,-21,60,-90,00,-8,85,-20,98,-89,82,-1,64
30887,-0,59,1,08,-9,41,-21,60,-90,00,-8,85,-21,07,-89,82,-2,72
30903,-0,29,1,27,-9,41,-25,40,-90,00,-4,35,-21,72,-89,82,-2,96
30920,-0,29,1,47,-9,41,-29,40,-90,00,-4,35,-22,87,-89,82,-3,17
30938,-0,29,1,47,-9,41,-29,40,-90,00,-4,35,-23,85,-89,82,-3,35
30954,-0,49,2,35,-11,17,-47,00,-90,00,-7,35,-27,33,-89,82,-3,95
30970,-0,49,2,35,-11,17,-47,00,-90,00,-7,35,-30,28,-89,82,-4,46
30987,-0,59,2,55,-12,35,-51,00,-90,00,-8,85,-33,38,-89,82,-5,12
31003,-0,59,2,55,-12,35,-51,00,-90,00,-8,85,-36,03,-89,82,-5,68
31020,-0,59,2,55,-12,35,-51,00,-90,00,-8,85,-38,27,-89,82,-6,15
31037,-0,59,2,55,-9,90,-51,00,-90,00,-8,85,-40,18,-89,82,-6,56
31054,-0,49,2,06,-9,90,-41,20,-90,00,-7,35,-40,33,-89,82,-6,68
31070,-0,49,2,35,-9,70,-47,00,-90,00,-7,35,-41,33,-89,82,-6,78
31087,-0,29,2,35,-9,70,-47,00,-90,00,-4,35,-42,18,-89,82,-6,41
31104,-0,29,2,35,-9,31,-47,00,-90,00,-4,35,-42,91,-89,82,-6,10
31120,-0,29,2,35,-9,31,-47,00,-90,00,-4,35,-43,52,-89,82,-5,84
31137,-0,49,2,35,-9,51,-47,00,-90,00,-7,35,-44,04,-89,82,-6,07
31153,-0,49,2,35,-9,70,-47,00,-90,00,-7,35,-44,49,-89,82,-6,26
31170,-0,29,2,65,-9,70,-53,00,-90,00,-4,35,-45,76,-89,82,-5,97
31187,-0,29,2,65,-9,31,-53,00,-90,00,-4,35,-46,85,-89,82,-5,73
31203,-0,20,2,84,-9,31,-56,80,-90,00,-3,00,-48,34,-89,82,-5,32
31219,-0,20,3,14,-10,00,-62,80,-90,00,-3,00,-50,51,-89,82,-4,97
31235,-0,29,3,14,-10,00,-62,80,-90,00,-4,35,-52,35,-89,82,-4,88
31251,-0,29,3,14,-10,00,-62,80,-90,00,-4,35,-53,92,-89,82,-4,80
31267,-0,29,3,14,-10,00,-62,80,-90,00,-4,35,-55,25,-89,82,-4,73
31283,-0,59,3,23,-9,41,-64,60,-90,00,-8,85,-56,65,-89,82,-5,35
31299,-0,59,3,23,-9,41,-64,60,-90,00,-8,85,-57,85,-89,82,-5,87
31315,-0,49,3,23,-9,11,-64,60,-90,00,-7,35,-58,86,-89,82,-6,10
31331,-0,49,3,23,-9,11,-64,60,-90,00,-7,35,-59,72,-89,82,-6,28
31347,-0,49,3,53,-9,70,-70,60,-90,00,-7,35,-61,35,-89,82,-6,44
31363,-0,49,3,53,-9,70,-70,60,-90,00,-7,35,-62,74,-89,82,-6,58
31379,-0,29,3,33,-9,51,-66,60,-90,00,-4,35,-63,32,-89,82,-6,25
31396,-0,29,3,33,-8,82,-66,60,-90,00,-4,35,-63,81,-89,82,-5,96
31412,-0,49,3,43,-8,82,-68,60,-90,00,-7,35,-64,53,-89,82,-6,17
31428,-0,49,3,43,-9,02,-68,60,-90,00,-7,35,-65,14,-89,82,-6,35
31444,-0,59,3,72,-9,02,-74,40,-90,00,-8,85,-66,53,-89,82,-6,72
31460,-0,59,3,72,-9,70,-74,40,-90,00,-8,85,-67,71,-89,82,-7,04
31476,-0,49,3,72,-9,70,-74,40,-90,00,-7,35,-68,71,-89,82,-7,09
31492,-0,49,3,82,-9,31,-76,40,-90,00,-7,35,-69,87,-89,82,-7,13
31508,-0,29,3,82,-9,31,-76,40,-90,00,-4,35,-70,85,-89,82,-6,71
31524,-0,29,3,82,-9,31,-76,40,-90,00,-4,35,-71,68,-89,82,-6,36
31540,-0,29,3,82,-9,31,-76,40,-90,00,-4,35,-72,39,-89,82,-6,06
31556,-0,59,4,02,-8,92,-80,40,-90,00,-8,85,-73,59,-89,82,-6,47
31572,-0,59,4,02,-8,92,-80,40,-90,00,-8,85,-74,61,-89,82,-6,83
31588,-0,59,4,02,-9,51,-80,40,-90,00,-8,85,-75,48,-89,82,-7,13
31620,-0,59,4,02,-8,92,-80,40,-90,00,-8,85,-76,22,-89,82,-7,39
31636,-0,59,4,02,-9,21,-80,40,-90,00,-8,85,-76,84,-89,82,-7,61
31652,-0,59,4,12,-9,21,-82,40,-90,00,-8,85,-77,68,-89,82,-7,80
31668,-0,59,4,12,-9,21,-82,40,-90,00,-8,85,-78,39,-89,82,-7,95
31684,-0,49,4,12,-9,21,-82,40,-90,00,-7,35,-78,99,-89,82,-7,86
31700,-0,49,4,12,-9,02,-82,40,-90,00,-7,35,-79,50,-89,82,-7,79
31716,-0,59,4,12,-9,02,-82,40,-90,00,-8,85,-79,94,-89,82,-7,95
31732,-0,59,4,21,-9,11,-84,20,-90,00,-8,85,-80,57,-89,82,-8,08
31748,-0,59,4,21,-9,11,-84,20,-90,00,-8,85,-81,12,-89,82,-8,20
31764,-0,59,4,41,-8,82,-88,20,-90,00,-8,85,-82,18,-89,82,-8,29
31780,-0,59,4,41,-8,82,-88,20,-90,00,-8,85,-83,08,-89,82,-8,38
31796,-0,59,4,31,-9,02,-86,20,-90,00,-8,85,-83,55,-89,82,-8,45
31812,-0,59,4,31,-9,02,-86,20,-90,00,-8,85,-83,95,-89,82,-8,51
31828,-0,59,4,41,-8,82,-88,20,-90,00,-8,85,-84,59,-89,82,-8,56
31844,-0,59,4,41,-8,82,-88,20,-90,00,-8,85,-85,13,-89,82,-8,60
31860,-0,59,4,41,-8,82,-88,20,-90,00,-8,85,-85,59,-89,82,-8,64
31876,-0,59,4,41,-8,82,-88,20,-90,00,-8,85,-85,98,-89,82,-8,67
31892,-0,29,4,41,-8,82,-88,20,-90,00,-4,35,-86,31,-89,82,-8,02
31908,-0,29,4,41,-8,92,-88,20,-90,00,-4,35,-86,60,-89,82,-7,47
31924,-0,49,4,51,-8,92,-90,00,-90,00,-7,35,-87,11,-89,82,-7,47
31940,-0,49,4,61,-8,82,-90,00,-90,00,-7,35,-87,54,-89,82,-7,47
31956,-0,59,4,61,-8,82,-90,00,-90,00,-8,85,-87,91,-89,82,-7,68
31972,-0,59,4,61,-8,82,-90,00,-90,00,-8,85,-88,22,-89,82,-7,85
31988,-0,59,4,61,-8,82,-90,00,-90,00,-8,85,-88,49,-89,82,-8,00
32019,-0,78,4,70,-8,72,-90,00,-90,00,-11,70,-88,72,-89,82,-8,56
32035,-0,78,4,70,-8,72,-90,00,-90,00,-11,70,-88,91,-89,82,-9,03
32051,-0,78,4,70,-8,72,-90,00,-90,00,-11,70,-89,07,-89,82,-9,43
32067,-0,59,4,70,-8,53,-90,00,-90,00,-8,85,-89,21,-89,82,-9,34
32083,-0,59,4,70,-8,92,-90,00,-90,00,-8,85,-89,33,-89,82,-9,27
32099,-0,78,4,70,-8,92,-90,00,-90,00,-11,70,-89,43,-89,82,-9,63
32115,-0,78,4,70,-8,82,-90,00,-90,00,-11,70,-89,52,-89,82,-9,94
32131,-0,29,4,80,-8,82,-90,00,-90,00,-4,35,-89,59,-89,82,-9,10
32147,-0,29,4,80,-8,82,-90,00,-90,00,-4,35,-89,65,-89,82,-8,39
32163,-0,78,4,80,-8,82,-90,00,-90,00,-11,70,-89,70,-89,82,-8,89
32179,-0,78,4,80,-8,62,-90,00,-90,00,-11,70,-89,75,-89,82,-9,31
32195,-0,78,4,80,-8,62,-90,00,-90,00,-11,70,-89,79,-89,82,-9,67
32211,-0,78,4,80,-8,62,-90,00,-90,00,-11,70,-89,82,-89,82,-9,97
32228,-0,59,4,80,-8,62,-90,00,-90,00,-8,85,-89,82,-89,82,-9,80
32244,-0,78,4,80,-8,62,-90,00,-90,00,-11,70,-89,82,-89,82,-10,09
32260,-0,78,4,80,-8,62,-90,00,-90,00,-11,70,-89,82,-89,82,-10,33
32276,-0,78,5,00,-8,33,-90,00,-90,00,-11,70,-89,82,-89,82,-10,54
32292,-0,78,5,00,-8,33,-90,00,-90,00,-11,70,-89,82,-89,82,-10,71
32308,-0,88,4,80,-8,82,-90,00,-90,00,-13,20,-89,82,-89,82,-11,08
32324,-0,88,4,80,-8,53,-90,00,-90,00,-13,20,-89,82,-89,82,-11,40
32340,-0,88,5,00,-8,53,-90,00,-90,00,-13,20,-89,82,-89,82,-11,67
32356,-0,88,5,00,-8,43,-90,00,-90,00,-13,20,-89,82,-89,82,-11,90
32388,-0,88,5,10,-8,53,-90,00,-90,00,-13,20,-89,82,-89,82,-12,10
32404,-0,78,5,19,-8,53,-90,00,-90,00,-11,70,-89,82,-89,82,-12,04
32420,-0,78,5,10,-8,23,-90,00,-90,00,-11,70,-89,82,-89,82,-11,99
32436,-0,88,5,10,-8,23,-90,00,-90,00,-13,20,-89,82,-89,82,-12,17
32452,-0,88,5,19,-8,33,-90,00,-90,00,-13,20,-89,82,-89,82,-12,32
32468,-0,78,5,19,-8,33,-90,00,-90,00,-11,70,-89,82,-89,82,-12,23
32484,-0,88,5,29,-8,72,-90,00,-90,00,-13,20,-89,82,-89,82,-12,37
32500,-0,88,5,29,-8,72,-90,00,-90,00,-13,20,-89,82,-89,82,-12,50
32516,-0,88,5,29,-8,72,-90,00,-90,00,-13,20,-89,82,-89,82,-12,60
32532,-0,88,5,29,-8,72,-90,00,-90,00,-13,20,-89,82,-89,82,-12,69
32548,-0,88,5,19,-8,53,-90,00,-90,00,-13,20,-89,82,-89,82,-12,77
32564,-0,88,5,19,-8,13,-90,00,-90,00,-13,20,-89,82,-89,82,-12,83
32580,-0,88,5,19,-8,13,-90,00,-90,00,-13,20,-89,82,-89,82,-12,89
32596,-0,88,5,19,-8,53,-90,00,-90,00,-13,20,-89,82,-89,82,-12,94
32612,-1,08,5,49,-8,53,-90,00,-90,00,-16,20,-89,82,-89,82,-13,43
32628,-1,08,5,39,-8,33,-90,00,-90,00,-16,20,-89,82,-89,82,-13,84
32644,-0,88,5,39,-8,33,-90,00,-90,00,-13,20,-89,82,-89,82,-13,75
32660,-0,88,5,39,-7,84,-90,00,-90,00,-13,20,-89,82,-89,82,-13,66
32676,-1,27,5,39,-7,84,-90,00,-90,00,-19,05,-89,82,-89,82,-14,47
32692,-1,27,5,49,-7,94,-90,00,-90,00,-19,05,-89,82,-89,82,-15,16
32708,-1,08,5,49,-7,94,-90,00,-90,00,-16,20,-89,82,-89,82,-15,31
32724,-1,27,5,68,-7,94,-90,00,-90,00,-19,05,-89,82,-89,82,-15,87
32740,-1,27,5,68,-7,94,-90,00,-90,00,-19,05,-89,82,-89,82,-16,35
32756,-1,27,5,68,-8,13,-90,00,-90,00,-19,05,-89,82,-89,82,-16,76
32772,-1,27,5,68,-8,13,-90,00,-90,00,-19,05,-89,82,-89,82,-17,10
32788,-1,27,5,88,-8,13,-90,00,-90,00,-19,05,-89,82,-89,82,-17,39
32820,-1,08,5,68,-8,72,-90,00,-90,00,-16,20,-89,82,-89,82,-17,21
32836,-1,08,5,68,-8,53,-90,00,-90,00,-16,20,-89,82,-89,82,-17,06
32852,-1,08,5,68,-8,53,-90,00,-90,00,-16,20,-89,82,-89,82,-16,93
32868,-1,08,5,68,-7,84,-90,00,-90,00,-16,20,-89,82,-89,82,-16,82
32887,-1,37,5,78,-7,84,-90,00,-90,00,-20,55,-89,82,-89,82,-17,38
32904,-1,37,5,98,-7,35,-90,00,-90,00,-20,55,-89,82,-89,82,-17,86
32921,-1,37,5,98,-7,35,-90,00,-90,00,-20,55,-89,82,-89,82,-18,26
32937,-1,57,5,88,-7,15,-90,00,-90,00,-23,55,-89,82,-89,82,-19,05
32954,-1,57,5,88,-7,35,-90,00,-90,00,-23,55,-89,82,-89,82,-19,73
32971,-1,57,5,98,-7,35,-90,00,-90,00,-23,55,-89,82,-89,82,-20,30
32987,-1,57,6,17,-7,55,-90,00,-90,00,-23,55,-89,82,-89,82,-20,79
33003,-1,57,6,17,-7,55,-90,00,-90,00,-23,55,-89,82,-89,82,-21,20
33021,-1,57,6,17,-7,55,-90,00,-90,00,-23,55,-89,82,-89,82,-21,56
33037,-1,57,6,17,-7,55,-90,00,-90,00,-23,55,-89,82,-89,82,-21,85
33053,-1,37,6,37,-7,35,-90,00,-90,00,-20,55,-89,82,-89,82,-21,66
33070,-1,37,6,37,-7,35,-90,00,-90,00,-20,55,-89,82,-89,82,-21,49
33087,-1,57,6,47,-7,45,-90,00,-90,00,-23,55,-89,82,-89,82,-21,80
33104,-1,57,6,47,-7,84,-90,00,-90,00,-23,55,-89,82,-89,82,-22,06
33121,-1,57,6,76,-7,84,-90,00,-90,00,-23,55,-89,82,-89,82,-22,29
33137,-1,57,6,76,-7,74,-90,00,-90,00,-23,55,-89,82,-89,82,-22,48
33154,-1,57,7,06,-7,74,-90,00,-90,00,-23,55,-89,82,-89,82,-22,64
33170,-1,57,6,66,-6,76,-90,00,-90,00,-23,55,-89,82,-89,82,-22,77
33187,-1,37,6,66,-6,76,-90,00,-90,00,-20,55,-89,82,-89,82,-22,44
33203,-1,57,7,15,-7,06,-90,00,-90,00,-23,55,-89,82,-89,82,-22,61
33220,-1,57,7,15,-7,06,-90,00,-90,00,-23,55,-89,82,-89,82,-22,75
33236,-0,78,7,15,-8,33,-90,00,-90,00,-11,70,-89,82,-89,82,-21,09
33252,-0,78,7,15,-8,33,-90,00,-90,00,-11,70,-89,82,-89,82,-19,68
33270,-1,57,7,06,-6,57,-90,00,-90,00,-23,55,-89,82,-89,82,-20,26
33287,-1,57,7,06,-6,96,-90,00,-90,00,-23,55,-89,82,-89,82,-20,76
33303,-1,57,7,25,-6,96,-90,00,-90,00,-23,55,-89,82,-89,82,-21,17
33321,-1,57,7,15,-6,66,-90,00,-90,00,-23,55,-89,82,-89,82,-21,53
33337,-1,57,7,15,-6,66,-90,00,-90,00,-23,55,-89,82,-89,82,-21,83
33354,-1,37,7,15,-6,66,-90,00,-90,00,-20,55,-89,82,-89,82,-21,64
33371,-1,37,7,15,-6,66,-90,00,-90,00,-20,55,-89,82,-89,82,-21,48
33387,-1,27,7,25,-6,76,-90,00,-90,00,-19,05,-89,82,-89,82,-21,11
33404,-1,27,7,25,-6,57,-90,00,-90,00,-19,05,-89,82,-89,82,-20,80
33420,-1,27,7,35,-6,57,-90,00,-90,00,-19,05,-89,82,-89,82,-20,54
