Time,AccelX,AccelY,AccelZ,TargetAngleX,TargetAngleY,TargetAngleZ,CurrentAngleX,CurrentAngleY,CurrentAngleZ
738,0,29,0,59,-10,00,-598,39,0,00,0,00,-59,84,0,00,0,00
768,0,29,0,59,-10,00,-598,39,0,00,0,00,-113,69,0,00,0,00
786,0,20,0,59,-10,00,-598,39,0,00,0,00,-162,16,0,00,0,00
810,0,29,0,69,-10,09,1448,02,0,00,0,00,-1,15,0,00,0,00
832,0,20,0,59,-10,00,-598,39,0,00,0,00,-60,87,0,00,0,00
850,0,20,0,59,-10,00,-598,39,0,00,0,00,-114,62,0,00,0,00
870,0,29,0,78,-10,00,662,21,0,00,0,00,-36,94,0,00,0,00
890,0,29,0,78,-10,00,662,21,0,00,0,00,32,98,0,00,0,00
910,0,20,0,78,-10,00,662,21,0,00,0,00,95,90,0,00,0,00
930,0,29,0,59,-10,00,-598,39,0,00,0,00,26,47,0,00,0,00
950,0,29,0,78,-10,00,662,21,0,00,0,00,90,04,0,00,0,00
977,0,29,0,78,-10,00,662,21,0,00,0,00,147,26,0,00,0,00
994,0,20,0,78,-10,00,662,21,0,00,0,00,198,76,0,00,0,00
1014,0,29,0,59,-10,00,-598,39,0,00,0,00,119,04,0,00,0,00
1033,0,29,0,59,-10,00,-598,39,0,00,0,00,47,30,0,00,0,00
1053,0,29,0,78,-10,00,662,21,0,00,0,00,108,79,0,00,0,00
1073,0,20,0,69,-10,09,1448,02,0,00,0,00,242,71,0,00,0,00
1090,0,20,0,69,-10,09,1448,02,0,00,0,00,363,24,0,00,0,00
1106,0,20,0,69,-10,09,1448,02,0,00,0,00,471,72,0,00,0,00
1127,0,20,0,69,-10,00,288,34,0,00,0,00,453,38,0,00,0,00
1146,0,29,0,59,-10,00,-598,39,0,00,0,00,348,20,0,00,0,00
1167,0,29,0,69,-10,09,1448,02,0,00,0,00,458,19,0,00,0,00
1186,0,29,0,69,-10,00,288,34,0,00,0,00,441,20,0,00,0,00
1209,0,29,0,78,-10,00,662,21,0,00,0,00,463,30,0,00,0,00
1232,0,20,0,69,-10,09,1448,02,0,00,0,00,561,77,0,00,0,00
1252,0,20,0,59,-10,00,-598,39,0,00,0,00,445,76,0,00,0,00
1271,0,29,0,59,-10,00,-598,39,0,00,0,00,341,34,0,00,0,00
1290,0,29,0,69,-10,09,1448,02,0,00,0,00,452,01,0,00,0,00
1310,0,29,0,69,-9,90,84,30,0,00,0,00,415,24,0,00,0,00
1329,0,29,0,69,-9,90,84,30,0,00,0,00,382,14,0,00,0,00
1348,0,29,0,78,-10,29,1433,07,0,00,0,00,487,24,0,00,0,00
1367,0,29,0,59,-9,80,-167,79,0,00,0,00,421,73,0,00,0,00
1387,0,29,0,59,-9,80,-167,79,0,00,0,00,362,78,0,00,0,00
1406,0,29,0,69,-10,09,1448,02,0,00,0,00,471,31,0,00,0,00
1426,0,29,0,69,-9,90,84,30,0,00,0,00,432,61,0,00,0,00
1445,0,20,0,69,-9,90,84,30,0,00,0,00,397,77,0,00,0,00
1466,0,20,0,69,-10,09,1448,02,0,00,0,00,502,80,0,00,0,00
1489,0,20,0,69,-9,90,84,30,0,00,0,00,460,95,0,00,0,00
1508,0,20,0,69,-9,90,84,30,0,00,0,00,423,28,0,00,0,00
1531,0,29,0,69,-10,09,1448,02,0,00,0,00,525,76,0,00,0,00
1550,0,29,0,69,-10,09,1448,02,0,00,0,00,617,98,0,00,0,00
1570,0,20,0,69,-10,09,1448,02,0,00,0,00,700,99,0,00,0,00
1589,0,20,0,69,-10,09,1448,02,0,00,0,00,775,69,0,00,0,00
1610,0,20,0,69,-10,09,1448,02,0,00,0,00,842,92,0,00,0,00
1629,0,20,0,69,-10,09,1448,02,0,00,0,00,903,43,0,00,0,00
1648,0,20,0,78,-10,00,662,21,0,00,0,00,879,31,0,00,0,00
1665,0,20,0,78,-10,00,662,21,0,00,0,00,857,60,0,00,0,00
1682,0,29,0,59,-10,00,-598,39,0,00,0,00,712,00,0,00,0,00
1698,0,29,0,69,-10,09,1448,02,0,00,0,00,785,60,0,00,0,00
1714,0,29,0,69,-10,09,1448,02,0,00,0,00,851,84,0,00,0,00
1730,0,29,0,69,-10,09,1448,02,0,00,0,00,911,46,0,00,0,00
1748,0,29,0,69,-10,09,1448,02,0,00,0,00,965,12,0,00,0,00
1766,0,29,0,69,-10,09,1448,02,0,00,0,00,1013,41,0,00,0,00
1785,0,29,0,69,-10,09,1448,02,0,00,0,00,1056,87,0,00,0,00
1803,0,29,0,69,-10,09,1448,02,0,00,0,00,1095,98,0,00,0,00
1821,0,29,0,69,-10,09,1448,02,0,00,0,00,1131,18,0,00,0,00
1842,0,29,0,69,-10,09,1448,02,0,00,0,00,1162,87,0,00,0,00
1858,0,29,0,69,-10,09,1448,02,0,00,0,00,1191,38,0,00,0,00
1874,0,29,0,69,-10,09,1448,02,0,00,0,00,1217,05,0,00,0,00
1890,0,20,0,69,-10,09,1448,02,0,00,0,00,1240,14,0,00,0,00
1906,0,20,0,78,-10,00,662,21,0,00,0,00,1182,35,0,00,0,00
1922,0,29,0,78,-10,00,662,21,0,00,0,00,1130,34,0,00,0,00
1944,0,29,0,69,-10,09,1448,02,0,00,0,00,1162,10,0,00,0,00
1962,0,29,0,69,-10,00,288,34,0,00,0,00,1074,73,0,00,0,00
1980,0,29,0,78,-10,00,662,21,0,00,0,00,1033,48,0,00,0,00
2000,0,29,0,78,-10,00,662,21,0,00,0,00,996,35,0,00,0,00
2017,0,29,0,78,-10,00,662,21,0,00,0,00,962,94,0,00,0,00
2034,0,29,0,69,-10,09,1448,02,0,00,0,00,1011,44,0,00,0,00
2050,0,29,0,69,-10,09,1448,02,0,00,0,00,1055,10,0,00,0,00
2067,0,29,0,69,-10,09,1448,02,0,00,0,00,1094,39,0,00,0,00
2085,0,29,0,69,-10,09,1448,02,0,00,0,00,1129,75,0,00,0,00
2102,0,29,0,69,-10,09,1448,02,0,00,0,00,1161,58,0,00,0,00
2119,0,29,0,69,-10,09,1448,02,0,00,0,00,1190,22,0,00,0,00
2136,0,20,0,69,-10,09,1448,02,0,00,0,00,1216,00,0,00,0,00
2154,0,29,0,78,-10,00,662,21,0,00,0,00,1160,62,0,00,0,00
2171,0,29,0,78,-10,00,662,21,0,00,0,00,1110,78,0,00,0,00
2188,0,29,0,59,-10,00,-598,39,0,00,0,00,939,87,0,00,0,00
2210,0,29,0,59,-10,00,-598,39,0,00,0,00,786,04,0,00,0,00
2226,0,29,0,59,-10,00,-598,39,0,00,0,00,647,60,0,00,0,00
2242,0,20,0,69,-10,09,1448,02,0,00,0,00,727,64,0,00,0,00
2258,0,20,0,69,-10,09,1448,02,0,00,0,00,799,68,0,00,0,00
2274,0,20,0,69,-9,90,84,30,0,00,0,00,728,14,0,00,0,00
2290,0,20,0,69,-9,90,84,30,0,00,0,00,663,75,0,00,0,00
2306,0,29,0,69,-9,90,84,30,0,00,0,00,605,81,0,00,0,00
2322,0,29,0,69,-10,00,288,34,0,00,0,00,574,06,0,00,0,00
2338,0,29,0,59,-10,00,-598,39,0,00,0,00,456,82,0,00,0,00
2354,0,29,0,59,-9,90,-273,72,0,00,0,00,383,76,0,00,0,00
2370,0,29,0,69,-9,90,84,30,0,00,0,00,353,82,0,00,0,00
2386,0,29,0,69,-10,09,1448,02,0,00,0,00,463,24,0,00,0,00
2402,0,29,0,69,-10,09,1448,02,0,00,0,00,561,71,0,00,0,00
2418,0,29,0,59,-10,00,-598,39,0,00,0,00,445,70,0,00,0,00
2434,0,29,0,59,-10,00,-598,39,0,00,0,00,341,29,0,00,0,00
2450,0,29,0,69,-10,09,1448,02,0,00,0,00,451,97,0,00,0,00
2466,0,29,0,69,-10,09,1448,02,0,00,0,00,551,57,0,00,0,00
2482,0,20,0,59,-10,00,-598,39,0,00,0,00,436,57,0,00,0,00
2498,0,20,0,59,-10,00,-598,39,0,00,0,00,333,08,0,00,0,00
2514,0,29,0,69,-9,90,84,30,0,00,0,00,308,20,0,00,0,00
2530,0,29,0,69,-9,90,84,30,0,00,0,00,285,81,0,00,0,00
2560,0,29,0,69,-10,09,1448,02,0,00,0,00,402,03,0,00,0,00
2577,0,29,0,69,-10,09,1448,02,0,00,0,00,506,63,0,00,0,00
2594,0,29,0,69,-10,09,1448,02,0,00,0,00,600,77,0,00,0,00
2610,0,29,0,69,-10,09,1448,02,0,00,0,00,685,49,0,00,0,00
2626,0,29,0,69,-10,09,1448,02,0,00,0,00,761,74,0,00,0,00
2642,0,29,0,69,-10,09,1448,02,0,00,0,00,830,37,0,00,0,00
2658,0,29,0,69,-10,09,1448,02,0,00,0,00,892,14,0,00,0,00
2674,0,29,0,69,-10,09,1448,02,0,00,0,00,947,72,0,00,0,00
2690,0,29,0,69,-10,09,1448,02,0,00,0,00,997,75,0,00,0,00
2706,0,29,0,69,-10,09,1448,02,0,00,0,00,1042,78,0,00,0,00
2722,0,20,0,78,-10,00,662,21,0,00,0,00,1004,72,0,00,0,00
2738,0,29,0,78,-10,00,662,21,0,00,0,00,970,47,0,00,0,00
2754,0,20,0,69,-10,09,1448,02,0,00,0,00,1018,23,0,00,0,00
2770,0,20,0,69,-10,09,1448,02,0,00,0,00,1061,20,0,00,0,00
2786,0,29,0,78,-10,00,662,21,0,00,0,00,1021,31,0,00,0,00
2802,0,29,0,78,-10,09,1061,84,0,00,0,00,1025,36,0,00,0,00
2818,0,20,0,69,-10,09,1448,02,0,00,0,00,1067,62,0,00,0,00
2834,0,20,0,69,-10,00,288,34,0,00,0,00,989,70,0,00,0,00
2850,0,20,0,78,-10,00,662,21,0,00,0,00,956,95,0,00,0,00
2866,0,20,0,78,-10,00,662,21,0,00,0,00,927,47,0,00,0,00
2882,0,29,0,59,-10,00,-598,39,0,00,0,00,774,89,0,00,0,00
2898,0,29,0,69,-9,90,84,30,0,00,0,00,705,83,0,00,0,00
2914,0,29,0,69,-9,90,84,30,0,00,0,00,643,68,0,00,0,00
2930,0,29,0,69,-10,09,1448,02,0,00,0,00,724,11,0,00,0,00
2946,0,29,0,69,-10,09,1448,02,0,00,0,00,796,50,0,00,0,00
2962,0,29,0,59,-10,00,-598,39,0,00,0,00,657,01,0,00,0,00
2978,0,29,0,59,-10,00,-598,39,0,00,0,00,531,47,0,00,0,00
3009,0,29,0,69,-10,09,1448,02,0,00,0,00,623,13,0,00,0,00
3025,0,29,0,59,-10,00,-598,39,0,00,0,00,500,97,0,00,0,00
3041,0,29,0,59,-10,00,-598,39,0,00,0,00,391,04,0,00,0,00
3057,0,29,0,69,-10,09,1448,02,0,00,0,00,496,73,0,00,0,00
3073,0,29,0,69,-10,09,1448,02,0,00,0,00,591,86,0,00,0,00
3089,0,20,0,69,-10,09,1448,02,0,00,0,00,677,48,0,00,0,00
3105,0,20,0,69,-10,09,1448,02,0,00,0,00,754,53,0,00,0,00
3121,0,20,0,69,-10,09,1448,02,0,00,0,00,823,88,0,00,0,00
3137,0,20,0,69,-10,09,1448,02,0,00,0,00,886,29,0,00,0,00
3153,0,29,0,69,-10,09,1448,02,0,00,0,00,942,47,0,00,0,00
3169,0,29,0,59,-10,00,-598,39,0,00,0,00,788,38,0,00,0,00
3185,0,29,0,59,-10,00,-598,39,0,00,0,00,649,70,0,00,0,00
3201,0,29,0,69,-10,09,1448,02,0,00,0,00,729,53,0,00,0,00
3217,0,29,0,69,-10,09,1448,02,0,00,0,00,801,38,0,00,0,00
3233,0,29,0,69,-10,09,1448,02,0,00,0,00,866,05,0,00,0,00
3249,0,29,0,69,-10,09,1448,02,0,00,0,00,924,24,0,00,0,00
3265,0,29,0,69,-9,90,84,30,0,00,0,00,840,25,0,00,0,00
3281,0,29,0,69,-9,90,84,30,0,00,0,00,764,65,0,00,0,00
3297,0,29,0,69,-10,09,1448,02,0,00,0,00,832,99,0,00,0,00
3313,0,29,0,69,-10,00,288,34,0,00,0,00,778,53,0,00,0,00
3329,0,29,0,59,-10,00,-598,39,0,00,0,00,640,83,0,00,0,00
3345,0,29,0,59,-10,09,-1143,99,0,00,0,00,462,35,0,00,0,00
3361,0,29,0,69,-10,09,1448,02,0,00,0,00,560,92,0,00,0,00
3393,0,29,0,59,-10,00,-598,39,0,00,0,00,444,99,0,00,0,00
3409,0,29,0,69,-10,09,1448,02,0,00,0,00,545,29,0,00,0,00
3425,0,20,0,69,-10,09,1448,02,0,00,0,00,635,56,0,00,0,00
3441,0,20,0,69,-9,90,84,30,0,00,0,00,580,44,0,00,0,00
3457,0,20,0,69,-9,90,84,30,0,00,0,00,530,82,0,00,0,00
3473,0,29,0,69,-9,90,84,30,0,00,0,00,486,17,0,00,0,00
3489,0,29,0,69,-9,90,84,30,0,00,0,00,445,98,0,00,0,00
3505,0,29,0,69,-10,09,1448,02,0,00,0,00,546,19,0,00,0,00
3521,0,29,0,69,-10,09,1448,02,0,00,0,00,636,37,0,00,0,00
3537,0,29,0,69,-10,09,1448,02,0,00,0,00,717,53,0,00,0,00
3553,0,29,0,69,-10,09,1448,02,0,00,0,00,790,58,0,00,0,00
3569,0,20,0,69,-10,09,1448,02,0,00,0,00,856,33,0,00,0,00
3585,0,20,0,69,-10,09,1448,02,0,00,0,00,915,49,0,00,0,00
3601,0,20,0,69,-10,09,1448,02,0,00,0,00,968,75,0,00,0,00
3617,0,20,0,69,-10,09,1448,02,0,00,0,00,1016,67,0,00,0,00
3633,0,20,0,69,-10,09,1448,02,0,00,0,00,1059,81,0,00,0,00
3649,0,20,0,78,-10,00,662,21,0,00,0,00,1020,05,0,00,0,00
3665,0,29,0,78,-10,00,662,21,0,00,0,00,984,26,0,00,0,00
3681,0,20,0,59,-10,00,-598,39,0,00,0,00,826,00,0,00,0,00
3697,0,20,0,59,-10,00,-598,39,0,00,0,00,683,56,0,00,0,00
3713,0,29,0,69,-9,90,84,30,0,00,0,00,623,63,0,00,0,00
3729,0,29,0,69,-9,90,84,30,0,00,0,00,569,70,0,00,0,00
3745,0,20,0,69,-10,09,1448,02,0,00,0,00,657,53,0,00,0,00
3761,0,20,0,69,-10,09,1448,02,0,00,0,00,736,58,0,00,0,00
3793,0,20,0,59,-10,00,-598,39,0,00,0,00,603,08,0,00,0,00
3809,0,20,0,59,-10,00,-598,39,0,00,0,00,482,94,0,00,0,00
3825,0,20,0,59,-10,09,-1143,99,0,00,0,00,320,24,0,00,0,00
3841,0,20,0,69,-10,09,1448,02,0,00,0,00,433,02,0,00,0,00
3857,0,20,0,69,-10,09,1448,02,0,00,0,00,534,52,0,00,0,00
3873,0,29,0,69,-10,09,1448,02,0,00,0,00,625,87,0,00,0,00
3889,0,29,0,69,-10,09,1448,02,0,00,0,00,708,08,0,00,0,00
3905,0,20,0,69,-10,09,1448,02,0,00,0,00,782,08,0,00,0,00
3921,0,20,0,69,-10,09,1448,02,0,00,0,00,848,67,0,00,0,00
3937,0,29,0,69,-10,09,1448,02,0,00,0,00,908,60,0,00,0,00
3953,0,29,0,69,-10,09,1448,02,0,00,0,00,962,55,0,00,0,00
3969,0,29,0,69,-10,09,1448,02,0,00,0,00,1011,09,0,00,0,00
3985,0,29,0,59,-10,00,-598,39,0,00,0,00,850,14,0,00,0,00
4001,0,29,0,59,-10,00,-598,39,0,00,0,00,705,29,0,00,0,00
4017,0,29,0,69,-10,09,1448,02,0,00,0,00,779,56,0,00,0,00
4033,0,29,0,69,-10,09,1448,02,0,00,0,00,846,41,0,00,0,00
4049,0,29,0,69,-10,09,1448,02,0,00,0,00,906,57,0,00,0,00
4065,0,29,0,69,-10,00,288,34,0,00,0,00,844,75,0,00,0,00
4081,0,29,0,59,-10,00,-598,39,0,00,0,00,700,43,0,00,0,00
4097,0,29,0,59,-10,00,-598,39,0,00,0,00,570,55,0,00,0,00
4113,0,29,0,59,-10,00,-598,39,0,00,0,00,453,66,0,00,0,00
4129,0,29,0,59,-10,00,-598,39,0,00,0,00,348,45,0,00,0,00
4145,0,29,0,59,-10,00,-598,39,0,00,0,00,253,77,0,00,0,00
4161,0,29,0,69,-10,09,1448,02,0,00,0,00,373,19,0,00,0,00
4177,0,20,0,69,-10,09,1448,02,0,00,0,00,480,67,0,00,0,00
4209,0,29,0,69,-10,09,1448,02,0,00,0,00,577,41,0,00,0,00
4225,0,20,0,69,-10,09,1448,02,0,00,0,00,664,47,0,00,0,00
4241,0,20,0,69,-10,09,1448,02,0,00,0,00,742,82,0,00,0,00
4257,0,29,0,59,-10,00,-598,39,0,00,0,00,608,70,0,00,0,00
4273,0,29,0,59,-9,90,-273,72,0,00,0,00,520,46,0,00,0,00
4289,0,29,0,69,-9,90,84,30,0,00,0,00,476,84,0,00,0,00
4305,0,29,0,69,-10,09,1448,02,0,00,0,00,573,96,0,00,0,00
4321,0,20,0,69,-10,09,1448,02,0,00,0,00,661,37,0,00,0,00
4337,0,20,0,59,-10,00,-598,39,0,00,0,00,535,39,0,00,0,00
4353,0,29,0,59,-10,00,-598,39,0,00,0,00,422,01,0,00,0,00
4369,0,29,0,78,-10,00,662,21,0,00,0,00,446,03,0,00,0,00
4385,0,29,0,78,-10,00,662,21,0,00,0,00,467,65,0,00,0,00
4401,0,29,0,59,-10,00,-598,39,0,00,0,00,361,05,0,00,0,00
4417,0,20,0,59,-10,00,-598,39,0,00,0,00,265,10,0,00,0,00
4433,0,29,0,69,-10,09,1448,02,0,00,0,00,383,39,0,00,0,00
4460,0,29,0,59,-10,00,-598,39,0,00,0,00,285,21,0,00,0,00
4488,0,20,0,59,-10,00,-598,39,0,00,0,00,196,85,0,00,0,00
4510,0,29,0,59,-10,00,-598,39,0,00,0,00,117,33,0,00,0,00
4528,0,29,0,59,-10,00,-598,39,0,00,0,00,45,76,0,00,0,00
4546,0,29,0,59,-10,09,-1143,99,0,00,0,00,-73,22,0,00,0,00
4563,0,20,0,69,-10,09,1448,02,0,00,0,00,78,91,0,00,0,00
4580,0,20,0,69,-10,09,1448,02,0,00,0,00,215,82,0,00,0,00
4597,0,20,0,69,-10,09,1448,02,0,00,0,00,339,04,0,00,0,00
4614,0,20,0,69,-10,09,1448,02,0,00,0,00,449,93,0,00,0,00
4631,0,20,0,69,-10,09,1448,02,0,00,0,00,549,74,0,00,0,00
4648,0,20,0,69,-10,09,1448,02,0,00,0,00,639,57,0,00,0,00
4665,0,20,0,69,-10,09,1448,02,0,00,0,00,720,41,0,00,0,00
4683,0,29,0,69,-10,09,1448,02,0,00,0,00,793,17,0,00,0,00
4701,0,29,0,59,-10,00,-598,39,0,00,0,00,654,02,0,00,0,00
4718,0,29,0,59,-10,00,-598,39,0,00,0,00,528,78,0,00,0,00
4735,0,20,0,69,-10,09,1448,02,0,00,0,00,620,70,0,00,0,00
4752,0,20,0,69,-10,00,288,34,0,00,0,00,587,46,0,00,0,00
4769,0,20,0,59,-10,00,-598,39,0,00,0,00,468,88,0,00,0,00
4786,0,20,0,59,-10,00,-598,39,0,00,0,00,362,15,0,00,0,00
4803,0,20,0,59,-10,00,-598,39,0,00,0,00,266,10,0,00,0,00
4820,0,20,0,69,-9,90,84,30,0,00,0,00,247,92,0,00,0,00
4837,0,29,0,69,-9,90,84,30,0,00,0,00,231,56,0,00,0,00
4854,0,29,0,59,-10,00,-598,39,0,00,0,00,148,56,0,00,0,00
4876,0,29,0,59,-10,09,-1143,99,0,00,0,00,19,31,0,00,0,00
4894,0,29,0,69,-10,09,1448,02,0,00,0,00,162,18,0,00,0,00
4911,0,29,0,69,-10,09,1448,02,0,00,0,00,290,76,0,00,0,00
4929,0,29,0,69,-10,09,1448,02,0,00,0,00,406,49,0,00,0,00
4946,0,29,0,69,-10,09,1448,02,0,00,0,00,510,64,0,00,0,00
4963,0,29,0,69,-9,90,84,30,0,00,0,00,468,01,0,00,0,00
4980,0,29,0,69,-9,90,84,30,0,00,0,00,429,63,0,00,0,00
4997,0,29,0,69,-10,09,1448,02,0,00,0,00,531,47,0,00,0,00
5014,0,29,0,69,-10,09,1448,02,0,00,0,00,623,13,0,00,0,00
5031,0,49,0,69,-9,90,84,30,0,00,0,00,569,24,0,00,0,00
5048,0,49,0,69,-9,90,84,30,0,00,0,00,520,75,0,00,0,00
5065,0,29,0,69,-10,09,1448,02,0,00,0,00,613,48,0,00,0,00
5082,0,29,0,69,-10,09,1448,02,0,00,0,00,696,93,0,00,0,00
5099,0,29,0,69,-10,09,1448,02,0,00,0,00,772,04,0,00,0,00
5116,0,29,0,69,-9,90,84,30,0,00,0,00,703,27,0,00,0,00
5133,0,20,0,69,-9,90,84,30,0,00,0,00,641,37,0,00,0,00
5150,0,20,0,78,-10,00,662,21,0,00,0,00,643,45,0,00,0,00
5167,0,29,0,78,-10,00,662,21,0,00,0,00,645,33,0,00,0,00
5184,0,20,0,69,-10,09,1448,02,0,00,0,00,725,60,0,00,0,00
5201,0,20,0,69,-10,09,1448,02,0,00,0,00,797,84,0,00,0,00
5218,0,29,0,69,-10,09,1448,02,0,00,0,00,862,86,0,00,0,00
5235,0,29,0,69,-10,00,288,34,0,00,0,00,805,41,0,00,0,00
5252,0,29,0,78,-10,00,662,21,0,00,0,00,791,09,0,00,0,00
5269,0,29,0,69,-9,90,84,30,0,00,0,00,720,41,0,00,0,00
5286,0,59,0,69,-9,90,84,30,0,00,0,00,656,80,0,00,0,00
5303,0,29,0,78,-10,00,662,21,0,00,0,00,657,34,0,00,0,00
5320,0,29,0,78,-10,00,662,21,0,00,0,00,657,83,0,00,0,00
5337,0,49,0,49,-9,70,-256,08,0,00,0,00,566,44,0,00,0,00
5354,0,49,0,49,-10,09,-980,52,0,00,0,00,411,74,0,00,0,00
5377,0,00,0,20,-10,09,-886,07,0,00,0,00,281,96,0,00,0,00
5394,0,00,0,20,-10,09,-886,07,0,00,0,00,165,16,0,00,0,00
5411,0,00,0,20,-10,09,-886,07,0,00,0,00,60,03,0,00,0,00
5428,0,88,0,69,-9,90,84,30,0,00,0,00,62,46,0,00,0,00
5445,0,88,0,69,-10,00,288,34,0,00,0,00,85,05,0,00,0,00
5461,-0,20,0,59,-10,00,-598,39,0,00,0,00,16,70,0,00,0,00
5477,-0,20,0,59,-9,41,-65,16,0,00,0,00,8,52,0,00,0,00
5493,-0,49,1,08,-9,41,305,97,0,00,0,00,38,26,0,00,0,00
5510,-0,49,1,67,-12,05,1408,71,0,00,0,00,175,31,0,00,0,00
5527,0,88,1,67,-12,05,1408,71,0,00,0,00,298,65,0,00,0,00
5544,1,08,0,98,-9,60,326,49,0,00,0,00,301,43,0,00,0,00
5560,1,08,0,98,-9,60,326,49,0,00,0,00,303,94,0,00,0,00
5577,1,96,1,67,-10,88,1193,65,0,00,0,00,392,91,0,00,0,00
5593,1,96,1,67,-10,88,1193,65,0,00,0,00,472,98,0,00,0,00
5610,1,96,1,67,-10,88,1193,65,0,00,0,00,545,05,0,00,0,00
5626,1,96,1,67,-9,70,655,62,0,00,0,00,556,11,0,00,0,00
5643,1,57,1,67,-9,70,655,62,0,00,0,00,566,06,0,00,0,00
5660,1,57,1,27,-12,25,1511,82,0,00,0,00,660,63,0,00,0,00
5676,0,59,1,27,-12,25,1511,82,0,00,0,00,745,75,0,00,0,00
5693,0,78,1,57,-10,98,1250,49,0,00,0,00,796,23,0,00,0,00
5710,0,78,1,57,-10,98,1250,49,0,00,0,00,841,65,0,00,0,00
5726,0,29,1,27,-11,37,1428,55,0,00,0,00,900,34,0,00,0,00
5743,0,29,1,27,-11,07,1374,24,0,00,0,00,947,73,0,00,0,00
5760,1,57,1,67,-11,07,1246,79,0,00,0,00,977,64,0,00,0,00
5776,1,57,1,67,-10,39,1004,20,0,00,0,00,980,29,0,00,0,00
5793,1,96,1,86,-10,39,977,43,0,00,0,00,980,01,0,00,0,00
5810,1,96,2,25,-9,80,747,85,0,00,0,00,956,79,0,00,0,00
5826,1,67,2,25,-9,80,747,85,0,00,0,00,935,90,0,00,0,00
5842,2,65,1,08,-10,19,1013,72,0,00,0,00,943,68,0,00,0,00
5858,2,65,1,08,-10,19,1013,72,0,00,0,00,950,68,0,00,0,00
5874,1,67,1,08,-10,39,1198,81,0,00,0,00,975,50,0,00,0,00
5890,1,67,1,08,-10,39,1198,81,0,00,0,00,997,83,0,00,0,00
5906,0,88,0,88,-8,92,98,68,0,00,0,00,907,91,0,00,0,00
5922,0,88,0,88,-8,92,98,68,0,00,0,00,826,99,0,00,0,00
5938,1,37,0,59,-8,13,-21,50,0,00,0,00,742,14,0,00,0,00
5954,1,37,0,59,-9,70,-119,90,0,00,0,00,655,94,0,00,0,00
5970,1,08,0,29,-9,70,-443,73,0,00,0,00,545,97,0,00,0,00
5986,1,08,0,29,-8,92,-171,67,0,00,0,00,474,21,0,00,0,00
6002,1,86,0,20,-8,92,-208,72,0,00,0,00,405,91,0,00,0,00
6018,1,86,0,39,-8,53,-95,95,0,00,0,00,355,73,0,00,0,00
6034,2,35,0,39,-8,53,-95,95,0,00,0,00,310,56,0,00,0,00
6050,2,35,-0,20,-9,41,-497,26,0,00,0,00,229,78,0,00,0,00
6066,1,57,-0,20,-9,41,-497,26,0,00,0,00,157,07,0,00,0,00
6082,1,57,-0,20,-9,41,-497,26,0,00,0,00,91,64,0,00,0,00
6098,1,57,-0,20,-9,41,-497,26,0,00,0,00,32,75,0,00,0,00
6114,0,29,-0,29,-9,31,-484,81,0,00,0,00,-19,01,0,00,0,00
6130,0,29,-0,29,-9,31,-484,81,0,00,0,00,-65,59,0,00,0,00
6146,2,35,-1,27,-8,53,-478,44,0,00,0,00,-106,87,0,00,0,00
6162,2,35,-1,27,-8,53,-478,44,0,00,0,00,-144,03,0,00,0,00
6178,-0,88,-1,27,-8,53,-478,44,0,00,0,00,-177,47,0,00,0,00
6194,-0,88,-1,27,-8,04,-405,09,0,00,0,00,-200,23,0,00,0,00
6226,0,20,-1,67,-8,62,-539,44,0,00,0,00,-234,15,0,00,0,00
6242,1,08,-2,06,-8,62,-574,02,0,00,0,00,-268,14,0,00,0,00
6258,1,08,-1,76,-8,53,-533,85,0,00,0,00,-294,71,0,00,0,00
6274,0,49,-1,76,-8,53,-533,85,0,00,0,00,-318,62,0,00,0,00
6290,0,49,-2,06,-8,13,-505,13,0,00,0,00,-337,27,0,00,0,00
6306,1,08,-2,06,-8,13,-505,13,0,00,0,00,-354,06,0,00,0,00
6322,0,29,-1,67,-8,62,-539,44,0,00,0,00,-372,60,0,00,0,00
6338,0,29,-1,67,-8,62,-539,44,0,00,0,00,-389,28,0,00,0,00
6354,-0,20,-2,25,-9,11,-664,16,0,00,0,00,-416,77,0,00,0,00
6370,-0,20,-2,25,-9,11,-664,16,0,00,0,00,-441,51,0,00,0,00
6386,0,29,-2,65,-8,62,-613,66,0,00,0,00,-458,72,0,00,0,00
6402,0,29,-2,65,-8,62,-613,66,0,00,0,00,-474,22,0,00,0,00
6418,-0,78,-2,16,-10,49,-909,36,0,00,0,00,-517,73,0,00,0,00
6434,-0,78,-2,16,-9,60,-745,28,0,00,0,00,-540,49,0,00,0,00
6450,-0,49,-2,35,-9,60,-750,27,0,00,0,00,-561,47,0,00,0,00
6466,-0,49,-2,35,-8,62,-595,09,0,00,0,00,-564,83,0,00,0,00
6482,-3,23,6,27,-8,62,695,55,0,00,0,00,-438,79,0,00,0,00
6498,-3,23,-2,65,-12,94,-1203,61,0,00,0,00,-515,27,0,00,0,00
6514,-3,04,-2,65,-12,94,-1203,61,0,00,0,00,-584,11,0,00,0,00
6530,-3,04,-2,45,-11,76,-1091,18,0,00,0,00,-634,81,0,00,0,00
6546,0,29,-2,45,-11,76,-1091,18,0,00,0,00,-680,45,0,00,0,00
6562,2,94,-1,47,-8,13,-442,97,0,00,0,00,-656,70,0,00,0,00
6578,2,94,-1,47,-8,13,-442,97,0,00,0,00,-635,33,0,00,0,00
6594,2,94,-1,47,-8,13,-442,97,0,00,0,00,-616,09,0,00,0,00
6626,1,37,-2,06,-9,60,-742,38,0,00,0,00,-628,72,0,00,0,00
6642,1,37,-2,06,-9,60,-742,38,0,00,0,00,-640,09,0,00,0,00
6658,0,29,-1,57,-10,78,-994,39,0,00,0,00,-675,52,0,00,0,00
6674,0,29,-1,57,-10,88,-1015,25,0,00,0,00,-709,49,0,00,0,00
6690,0,49,-1,76,-10,88,-1001,54,0,00,0,00,-738,70,0,00,0,00
6706,0,49,-1,76,-9,90,-796,28,0,00,0,00,-744,45,0,00,0,00
6722,1,08,-1,96,-9,90,-798,51,0,00,0,00,-749,86,0,00,0,00
6738,1,08,-1,67,-11,47,-1114,89,0,00,0,00,-786,36,0,00,0,00
6754,0,00,-1,67,-11,47,-1114,89,0,00,0,00,-819,21,0,00,0,00
6770,0,00,-1,86,-10,98,-1013,55,0,00,0,00,-838,65,0,00,0,00
6786,0,59,-1,86,-10,98,-1013,55,0,00,0,00,-856,14,0,00,0,00
6804,0,29,-1,18,-11,27,-1135,16,0,00,0,00,-884,04,0,00,0,00
6826,0,29,-1,67,-11,27,-1080,96,0,00,0,00,-903,73,0,00,0,00
6843,2,45,-1,67,-11,27,-1080,96,0,00,0,00,-921,46,0,00,0,00
6859,2,45,-1,57,-10,78,-994,39,0,00,0,00,-928,75,0,00,0,00
6876,1,86,-1,57,-10,78,-994,39,0,00,0,00,-935,31,0,00,0,00
6893,1,27,-1,27,-10,00,-815,92,0,00,0,00,-923,38,0,00,0,00
6909,1,27,-1,27,-10,00,-815,92,0,00,0,00,-912,63,0,00,0,00
6926,-0,88,-1,47,-9,70,-743,75,0,00,0,00,-895,74,0,00,0,00
6943,-0,88,-1,47,-9,60,-719,94,0,00,0,00,-878,16,0,00,0,00
6959,1,08,-1,18,-9,60,-703,90,0,00,0,00,-860,74,0,00,0,00
6976,1,08,-1,18,-10,88,-1050,89,0,00,0,00,-879,75,0,00,0,00
6993,1,08,-0,98,-10,88,-1074,48,0,00,0,00,-899,22,0,00,0,00
7009,1,08,-0,78,-13,72,-1454,52,0,00,0,00,-954,75,0,00,0,00
7026,1,27,-0,78,-13,72,-1454,52,0,00,0,00,-1004,73,0,00,0,00
7042,0,88,-1,57,-11,17,-1072,22,0,00,0,00,-1011,48,0,00,0,00
7058,0,88,-1,57,-11,17,-1072,22,0,00,0,00,-1017,55,0,00,0,00
7074,0,20,-2,65,-9,51,-743,05,0,00,0,00,-990,10,0,00,0,00
7090,0,20,-2,65,-9,51,-743,05,0,00,0,00,-965,40,0,00,0,00
7106,0,20,-2,65,-9,51,-743,05,0,00,0,00,-943,16,0,00,0,00
7122,0,20,-2,65,-9,51,-743,05,0,00,0,00,-923,15,0,00,0,00
7138,-1,27,-4,21,-8,43,-658,50,0,00,0,00,-896,68,0,00,0,00
7154,-1,27,-4,21,-8,43,-658,50,0,00,0,00,-872,87,0,00,0,00
7170,-1,27,-4,61,-8,43,-670,42,0,00,0,00,-852,62,0,00,0,00
7186,-1,27,-4,61,-6,08,-487,59,0,00,0,00,-816,12,0,00,0,00
7202,-2,16,-5,78,-6,08,-536,42,0,00,0,00,-788,15,0,00,0,00
7218,-2,16,-6,57,-6,37,-579,25,0,00,0,00,-767,26,0,00,0,00
7234,-1,27,-6,57,-6,37,-579,25,0,00,0,00,-748,46,0,00,0,00
7250,-1,27,-6,27,-6,66,-587,64,0,00,0,00,-732,38,0,00,0,00
7266,-1,57,-6,27,-6,66,-587,64,0,00,0,00,-717,90,0,00,0,00
7282,-1,08,-6,66,-8,82,-739,25,0,00,0,00,-720,04,0,00,0,00
7298,-1,08,-6,66,-8,82,-739,25,0,00,0,00,-721,96,0,00,0,00
7314,-0,29,-6,57,-7,94,-677,52,0,00,0,00,-717,51,0,00,0,00
7330,-0,29,-6,57,-7,94,-677,52,0,00,0,00,-713,52,0,00,0,00
7346,-0,29,-6,76,-7,55,-655,92,0,00,0,00,-707,76,0,00,0,00
7362,-0,29,-6,76,-5,88,-557,55,0,00,0,00,-692,74,0,00,0,00
7378,-1,37,-8,43,-5,88,-600,45,0,00,0,00,-683,51,0,00,0,00
7394,-1,37,-8,43,-6,37,-624,34,0,00,0,00,-677,59,0,00,0,00
7410,-1,08,-8,33,-6,37,-622,32,0,00,0,00,-672,06,0,00,0,00
7442,-0,59,-8,62,-4,80,-555,86,0,00,0,00,-660,44,0,00,0,00
7458,-0,59,-8,53,-3,92,-517,24,0,00,0,00,-646,12,0,00,0,00
7474,-0,49,-8,53,-3,92,-517,24,0,00,0,00,-633,23,0,00,0,00
7490,-0,49,-8,82,-2,94,-488,14,0,00,0,00,-618,72,0,00,0,00
7506,-1,27,-8,82,-2,94,-488,14,0,00,0,00,-605,67,0,00,0,00
7522,-1,27,-8,72,-2,25,-461,74,0,00,0,00,-591,27,0,00,0,00
7538,-0,29,-8,72,-2,25,-461,74,0,00,0,00,-578,32,0,00,0,00
7554,-0,78,-8,82,-2,45,-471,16,0,00,0,00,-567,60,0,00,0,00
7570,-0,78,-8,82,-2,45,-471,16,0,00,0,00,-557,96,0,00,0,00
7586,-0,78,-8,82,-2,45,-471,16,0,00,0,00,-549,28,0,00,0,00
7602,-0,78,-8,82,-2,45,-471,16,0,00,0,00,-541,47,0,00,0,00
7618,-0,49,-8,72,-0,20,-400,60,0,00,0,00,-527,38,0,00,0,00
7634,-0,49,-8,72,3,04,-327,31,0,00,0,00,-507,37,0,00,0,00
7650,-1,08,-9,80,3,04,-354,85,0,00,0,00,-492,12,0,00,0,00
7676,-1,37,-10,29,3,63,-355,27,0,00,0,00,-478,44,0,00,0,00
7693,-1,37,-10,29,3,33,-360,98,0,00,0,00,-466,69,0,00,0,00
7709,-0,78,-9,41,3,33,-339,60,0,00,0,00,-453,98,0,00,0,00
7726,-0,78,-9,41,3,33,-339,60,0,00,0,00,-442,54,0,00,0,00
7742,-0,78,-9,41,3,33,-339,60,0,00,0,00,-432,25,0,00,0,00
7759,-0,78,-9,41,5,00,-310,39,0,00,0,00,-420,06,0,00,0,00
7776,-0,49,-9,41,5,00,-310,39,0,00,0,00,-409,09,0,00,0,00
7793,-0,59,-8,62,2,84,-328,48,0,00,0,00,-401,03,0,00,0,00
7809,-0,59,-8,62,2,84,-328,48,0,00,0,00,-393,78,0,00,0,00
7825,-0,78,-8,62,3,23,-321,08,0,00,0,00,-386,51,0,00,0,00
7841,-0,78,-8,62,3,23,-321,08,0,00,0,00,-379,96,0,00,0,00
7857,-1,27,-8,04,4,31,-286,77,0,00,0,00,-370,65,0,00,0,00
7873,-1,27,-8,04,4,90,-277,46,0,00,0,00,-361,33,0,00,0,00
7889,-1,57,-8,33,4,90,-285,01,0,00,0,00,-353,70,0,00,0,00
7905,-1,57,-8,33,5,00,-283,46,0,00,0,00,-346,67,0,00,0,00
7921,-1,37,-8,04,5,00,-275,94,0,00,0,00,-339,60,0,00,0,00
7937,-1,37,-7,74,5,59,-259,48,0,00,0,00,-331,59,0,00,0,00
7953,-1,57,-7,74,5,59,-259,48,0,00,0,00,-324,38,0,00,0,00
7969,-1,57,-7,45,5,98,-246,60,0,00,0,00,-316,60,0,00,0,00
7985,-1,86,-7,45,5,98,-246,60,0,00,0,00,-309,60,0,00,0,00
8001,-1,86,-7,35,6,37,-238,95,0,00,0,00,-302,53,0,00,0,00
8017,-1,67,-7,35,6,37,-238,95,0,00,0,00,-296,18,0,00,0,00
8033,-1,86,-7,35,6,57,-236,45,0,00,0,00,-290,20,0,00,0,00
8049,-1,86,-7,35,6,57,-236,45,0,00,0,00,-284,83,0,00,0,00
8065,-1,67,-6,76,6,66,-220,04,0,00,0,00,-278,35,0,00,0,00
8081,-1,67,-6,76,6,66,-220,04,0,00,0,00,-272,52,0,00,0,00
8097,-1,67,-6,76,6,66,-220,04,0,00,0,00,-267,27,0,00,0,00
8113,-1,67,-6,76,6,47,-222,28,0,00,0,00,-262,77,0,00,0,00
8129,-1,86,-6,47,6,47,-214,55,0,00,0,00,-257,95,0,00,0,00
8145,-1,86,-6,47,6,76,-211,24,0,00,0,00,-253,28,0,00,0,00
8161,-1,86,-6,27,6,76,-205,91,0,00,0,00,-248,54,0,00,0,00
8177,-1,86,-6,27,7,25,-200,63,0,00,0,00,-243,75,0,00,0,00
8209,-2,16,-6,08,6,96,-198,67,0,00,0,00,-239,24,0,00,0,00
8226,-1,96,-6,08,6,96,-198,67,0,00,0,00,-235,18,0,00,0,00
8243,-1,96,-5,98,6,86,-197,05,0,00,0,00,-231,37,0,00,0,00
8259,-1,96,-5,98,6,86,-197,05,0,00,0,00,-227,94,0,00,0,00
8276,-2,35,-5,98,6,66,-199,19,0,00,0,00,-225,06,0,00,0,00
8293,-2,35,-5,98,7,35,-191,98,0,00,0,00,-221,75,0,00,0,00
8309,-2,16,-6,37,7,35,-202,19,0,00,0,00,-219,80,0,00,0,00
8326,-2,16,-6,37,6,86,-207,47,0,00,0,00,-218,56,0,00,0,00
8343,-1,57,-5,78,6,86,-191,64,0,00,0,00,-215,87,0,00,0,00
8359,-1,57,-5,88,6,76,-195,40,0,00,0,00,-213,82,0,00,0,00
8376,-1,57,-5,88,6,76,-195,40,0,00,0,00,-211,98,0,00,0,00
8393,-2,65,-6,47,7,06,-207,91,0,00,0,00,-211,57,0,00,0,00
8410,-2,65,-6,47,7,06,-207,91,0,00,0,00,-211,21,0,00,0,00
8426,-1,67,-6,27,7,64,-196,61,0,00,0,00,-209,75,0,00,0,00
8442,-1,67,-6,27,7,45,-198,55,0,00,0,00,-208,63,0,00,0,00
8459,-1,57,-6,47,7,45,-203,72,0,00,0,00,-208,14,0,00,0,00
8476,-1,57,-6,47,7,06,-207,91,0,00,0,00,-208,11,0,00,0,00
8492,-1,86,-6,47,7,06,-207,91,0,00,0,00,-208,09,0,00,0,00
8509,-1,86,-6,57,7,35,-207,36,0,00,0,00,-208,02,0,00,0,00
8526,-1,67,-6,57,7,35,-207,36,0,00,0,00,-207,95,0,00,0,00
8543,-2,35,-7,35,8,92,-210,34,0,00,0,00,-208,19,0,00,0,00
8559,-2,35,-7,35,8,92,-210,34,0,00,0,00,-208,41,0,00,0,00
8576,-2,35,-7,35,8,92,-210,34,0,00,0,00,-208,60,0,00,0,00
8592,-2,35,-7,35,4,70,-261,94,0,00,0,00,-213,94,0,00,0,00
8609,-1,86,-6,96,4,70,-251,08,0,00,0,00,-217,65,0,00,0,00
8625,-1,86,-6,96,4,31,-256,88,0,00,0,00,-221,57,0,00,0,00
8641,-1,08,-7,64,4,31,-275,92,0,00,0,00,-227,01,0,00,0,00
8657,-1,08,-7,64,5,00,-265,34,0,00,0,00,-230,84,0,00,0,00
8673,-1,08,-7,74,5,00,-268,01,0,00,0,00,-234,56,0,00,0,00
8689,-1,08,-7,84,5,10,-269,18,0,00,0,00,-238,02,0,00,0,00
8705,-1,27,-7,84,5,10,-269,18,0,00,0,00,-241,14,0,00,0,00
8721,-1,27,-9,02,3,53,-325,98,0,00,0,00,-249,62,0,00,0,00
8737,-0,78,-9,02,3,53,-325,98,0,00,0,00,-257,26,0,00,0,00
8753,-0,88,-8,82,2,65,-337,55,0,00,0,00,-265,29,0,00,0,00
8769,-0,88,-8,82,2,65,-337,55,0,00,0,00,-272,51,0,00,0,00
8785,-0,49,-9,02,2,55,-344,84,0,00,0,00,-279,75,0,00,0,00
8801,-0,49,-9,02,2,55,-344,84,0,00,0,00,-286,25,0,00,0,00
8817,0,20,-9,51,1,47,-380,69,0,00,0,00,-295,70,0,00,0,00
8833,0,20,-9,51,1,08,-389,70,0,00,0,00,-305,10,0,00,0,00
8849,0,78,-9,51,1,08,-389,70,0,00,0,00,-313,56,0,00,0,00
8865,0,78,-9,51,-0,98,-443,47,0,00,0,00,-326,55,0,00,0,00
8881,-0,20,-9,31,-0,98,-438,29,0,00,0,00,-337,72,0,00,0,00
8897,-0,20,-9,11,-1,86,-459,62,0,00,0,00,-349,91,0,00,0,00
8913,0,00,-9,11,-1,86,-459,62,0,00,0,00,-360,89,0,00,0,00
8929,0,00,-9,11,-1,86,-459,62,0,00,0,00,-370,76,0,00,0,00
8945,0,20,-9,11,-1,86,-459,62,0,00,0,00,-379,65,0,00,0,00
8961,0,20,-9,11,-3,63,-520,82,0,00,0,00,-393,76,0,00,0,00
8977,0,00,-9,11,-3,63,-520,82,0,00,0,00,-406,47,0,00,0,00
9009,-0,29,-8,72,-4,90,-562,55,0,00,0,00,-422,08,0,00,0,00
9025,-0,49,-9,11,-3,63,-520,82,0,00,0,00,-431,95,0,00,0,00
9041,-0,49,-9,11,-3,63,-520,82,0,00,0,00,-440,84,0,00,0,00
9057,-0,49,-9,11,-3,63,-520,82,0,00,0,00,-448,84,0,00,0,00
9073,-0,49,-9,11,-3,43,-513,37,0,00,0,00,-455,29,0,00,0,00
9089,0,20,-9,41,-3,43,-520,69,0,00,0,00,-461,83,0,00,0,00
9105,0,20,-9,41,-4,41,-558,05,0,00,0,00,-471,45,0,00,0,00
9121,-0,20,-9,11,-4,41,-551,24,0,00,0,00,-479,43,0,00,0,00
9137,-0,20,-8,92,-4,21,-538,68,0,00,0,00,-485,36,0,00,0,00
9153,0,00,-8,92,-4,21,-538,68,0,00,0,00,-490,69,0,00,0,00
9169,0,00,-8,13,-6,17,-608,06,0,00,0,00,-502,42,0,00,0,00
9185,-0,20,-8,13,-6,17,-608,06,0,00,0,00,-512,99,0,00,0,00
9201,-0,20,-7,94,-6,66,-629,22,0,00,0,00,-524,61,0,00,0,00
9217,0,00,-7,94,-6,66,-629,22,0,00,0,00,-535,07,0,00,0,00
9233,0,20,-8,13,-5,39,-570,30,0,00,0,00,-538,60,0,00,0,00
9249,0,20,-8,13,-5,39,-570,30,0,00,0,00,-541,77,0,00,0,00
9265,0,49,-7,94,-6,08,-599,25,0,00,0,00,-547,51,0,00,0,00
9281,0,49,-7,94,-6,08,-599,25,0,00,0,00,-552,69,0,00,0,00
9297,-0,20,-7,84,-7,15,-653,78,0,00,0,00,-562,80,0,00,0,00
9313,-0,20,-7,84,-7,06,-648,81,0,00,0,00,-571,40,0,00,0,00
9329,0,49,-7,15,-7,06,-634,50,0,00,0,00,-577,71,0,00,0,00
9345,0,49,-7,15,-7,25,-645,74,0,00,0,00,-584,51,0,00,0,00
9361,0,29,-7,25,-7,25,-647,85,0,00,0,00,-590,85,0,00,0,00
9377,0,29,-7,35,-7,55,-667,65,0,00,0,00,-598,53,0,00,0,00
9393,0,59,-7,35,-7,55,-667,65,0,00,0,00,-605,44,0,00,0,00
9425,0,20,-7,15,-8,04,-694,29,0,00,0,00,-614,32,0,00,0,00
9441,0,20,-6,76,-7,25,-637,07,0,00,0,00,-616,60,0,00,0,00
9457,-0,20,-6,76,-7,25,-637,07,0,00,0,00,-618,65,0,00,0,00
9473,-0,20,-6,76,-7,25,-637,07,0,00,0,00,-620,49,0,00,0,00
9489,-0,20,-6,76,-7,25,-637,07,0,00,0,00,-622,15,0,00,0,00
9505,-0,20,-6,47,-8,43,-709,36,0,00,0,00,-630,87,0,00,0,00
9521,-0,20,-6,47,-8,43,-709,36,0,00,0,00,-638,72,0,00,0,00
9537,0,00,-6,57,-7,94,-677,52,0,00,0,00,-642,60,0,00,0,00
9553,0,00,-6,57,-8,13,-690,34,0,00,0,00,-647,37,0,00,0,00
9569,0,20,-6,27,-8,13,-684,76,0,00,0,00,-651,11,0,00,0,00
9585,0,20,-6,27,-8,13,-684,76,0,00,0,00,-654,47,0,00,0,00
9601,0,20,-6,27,-8,13,-684,76,0,00,0,00,-657,50,0,00,0,00
9617,0,20,-6,27,-8,33,-698,95,0,00,0,00,-661,65,0,00,0,00
9633,0,20,-6,27,-8,33,-698,95,0,00,0,00,-665,38,0,00,0,00
9649,0,20,-6,27,-8,13,-684,76,0,00,0,00,-667,32,0,00,0,00
9665,0,20,-6,27,-8,13,-684,76,0,00,0,00,-669,06,0,00,0,00
9681,0,20,-6,27,-8,13,-684,76,0,00,0,00,-670,63,0,00,0,00
9697,0,20,-6,27,-8,13,-684,76,0,00,0,00,-672,04,0,00,0,00
9713,0,20,-6,08,-8,92,-739,53,0,00,0,00,-678,79,0,00,0,00
9729,0,20,-6,08,-8,92,-739,53,0,00,0,00,-684,87,0,00,0,00
9745,0,20,-5,98,-8,72,-722,96,0,00,0,00,-688,68,0,00,0,00
9761,0,20,-5,98,-8,72,-722,96,0,00,0,00,-692,10,0,00,0,00
9777,0,20,-6,08,-7,64,-646,35,0,00,0,00,-687,53,0,00,0,00
9793,0,20,-6,08,-8,82,-731,97,0,00,0,00,-691,97,0,00,0,00
9825,0,20,-5,88,-8,92,-736,95,0,00,0,00,-696,47,0,00,0,00
9841,0,20,-6,08,-8,92,-739,53,0,00,0,00,-700,78,0,00,0,00
9857,0,20,-5,98,-8,04,-672,37,0,00,0,00,-697,94,0,00,0,00
9873,0,29,-5,98,-8,04,-672,37,0,00,0,00,-695,38,0,00,0,00
9889,0,29,-6,08,-7,94,-667,38,0,00,0,00,-692,58,0,00,0,00
9905,0,20,-6,08,-7,94,-667,38,0,00,0,00,-690,06,0,00,0,00
9921,0,20,-6,08,-7,94,-667,38,0,00,0,00,-687,79,0,00,0,00
9937,0,29,-6,08,-7,94,-667,38,0,00,0,00,-685,75,0,00,0,00
9953,0,20,-5,68,-8,62,-710,32,0,00,0,00,-688,21,0,00,0,00
9969,0,20,-5,68,-8,62,-710,32,0,00,0,00,-690,42,0,00,0,00
9985,-0,29,-5,78,-8,23,-682,14,0,00,0,00,-689,59,0,00,0,00
10001,-0,29,-5,78,-8,23,-682,14,0,00,0,00,-688,85,0,00,0,00
10017,-0,59,-5,78,-8,43,-697,38,0,00,0,00,-689,70,0,00,0,00
10033,-0,59,-5,78,-8,53,-705,08,0,00,0,00,-691,24,0,00,0,00
10049,-0,78,-5,59,-8,53,-701,55,0,00,0,00,-692,27,0,00,0,00
10065,-0,78,-5,59,-8,53,-701,55,0,00,0,00,-693,20,0,00,0,00
10081,-0,78,-5,59,-8,53,-701,55,0,00,0,00,-694,03,0,00,0,00
10097,-0,78,-5,59,-8,53,-701,55,0,00,0,00,-694,78,0,00,0,00
10113,-0,78,-5,59,-8,53,-701,55,0,00,0,00,-695,46,0,00,0,00
10129,-0,78,-5,68,-8,33,-687,68,0,00,0,00,-694,68,0,00,0,00
10146,-1,57,-5,68,-8,33,-687,68,0,00,0,00,-693,98,0,00,0,00
10162,-1,57,-5,00,-9,21,-749,62,0,00,0,00,-699,55,0,00,0,00
10178,-1,67,-5,00,-9,21,-749,62,0,00,0,00,-704,55,0,00,0,00
10194,-2,16,-4,80,-8,62,-692,49,0,00,0,00,-703,35,0,00,0,00
10226,-2,74,-4,70,-8,82,-708,59,0,00,0,00,-703,87,0,00,0,00
10242,-2,74,-4,70,-8,82,-708,59,0,00,0,00,-704,34,0,00,0,00
10258,-3,23,-4,21,-8,92,-707,46,0,00,0,00,-704,66,0,00,0,00
10276,-3,23,-4,21,-8,92,-707,46,0,00,0,00,-704,94,0,00,0,00
10292,-3,23,-4,21,-8,92,-707,46,0,00,0,00,-705,19,0,00,0,00
10309,-3,23,-3,92,-8,92,-700,26,0,00,0,00,-704,70,0,00,0,00
10326,-3,72,-3,92,-8,92,-700,26,0,00,0,00,-704,25,0,00,0,00
10342,-4,02,-4,12,-8,04,-618,07,0,00,0,00,-695,64,0,00,0,00
10359,-4,02,-4,12,-8,04,-618,07,0,00,0,00,-687,88,0,00,0,00
10375,-4,21,-3,43,-8,33,-618,33,0,00,0,00,-680,92,0,00,0,00
10393,-4,21,-3,43,-8,53,-640,57,0,00,0,00,-676,89,0,00,0,00
10409,-4,80,-3,72,-8,53,-651,90,0,00,0,00,-674,39,0,00,0,00
10426,-4,80,-3,72,-7,64,-562,97,0,00,0,00,-663,25,0,00,0,00
10443,-5,10,-4,02,-7,64,-577,33,0,00,0,00,-654,66,0,00,0,00
10459,-5,10,-3,82,-7,64,-567,92,0,00,0,00,-645,98,0,00,0,00
10476,-5,29,-3,82,-7,64,-567,92,0,00,0,00,-638,18,0,00,0,00
10493,-5,98,-3,92,-6,86,-507,41,0,00,0,00,-625,10,0,00,0,00
10509,-5,98,-3,92,-6,86,-507,41,0,00,0,00,-613,33,0,00,0,00
10526,-5,98,-3,33,-8,23,-602,66,0,00,0,00,-612,26,0,00,0,00
10543,-5,98,-3,33,-6,66,-457,08,0,00,0,00,-596,75,0,00,0,00
10559,-6,66,-3,43,-6,66,-463,47,0,00,0,00,-583,42,0,00,0,00
10575,-6,66,-3,43,-6,66,-463,47,0,00,0,00,-571,42,0,00,0,00
10592,-6,66,-3,43,-6,66,-463,47,0,00,0,00,-560,63,0,00,0,00
10609,-6,66,-3,63,-7,25,-523,38,0,00,0,00,-556,90,0,00,0,00
10625,-7,06,-3,63,-7,25,-523,38,0,00,0,00,-553,55,0,00,0,00
10641,-7,06,-3,33,-8,04,-582,29,0,00,0,00,-556,42,0,00,0,00
10657,-6,96,-3,33,-8,04,-582,29,0,00,0,00,-559,01,0,00,0,00
10673,-7,74,-3,72,-6,37,-459,84,0,00,0,00,-549,09,0,00,0,00
10689,-7,74,-3,72,-6,37,-459,84,0,00,0,00,-540,17,0,00,0,00
10705,-7,45,-3,43,-6,66,-463,47,0,00,0,00,-532,50,0,00,0,00
10721,-7,45,-3,43,-6,66,-463,47,0,00,0,00,-525,59,0,00,0,00
10737,-7,84,-3,43,-6,66,-463,47,0,00,0,00,-519,38,0,00,0,00
10753,-7,84,-3,43,-5,59,-391,45,0,00,0,00,-506,59,0,00,0,00
10769,-7,84,-3,33,-5,59,-384,98,0,00,0,00,-494,43,0,00,0,00
10785,-7,84,-3,33,-6,17,-421,67,0,00,0,00,-487,15,0,00,0,00
10801,-8,04,-3,23,-6,17,-415,01,0,00,0,00,-479,94,0,00,0,00
10817,-8,04,-3,53,-5,78,-409,24,0,00,0,00,-472,87,0,00,0,00
10833,-7,74,-3,53,-5,78,-409,24,0,00,0,00,-466,50,0,00,0,00
10849,-7,74,-3,33,-6,57,-450,25,0,00,0,00,-464,88,0,00,0,00
10865,-7,74,-3,33,-6,57,-450,25,0,00,0,00,-463,42,0,00,0,00
10881,-7,74,-3,82,-5,59,-415,32,0,00,0,00,-458,61,0,00,0,00
10897,-8,13,-3,82,-5,59,-415,32,0,00,0,00,-454,28,0,00,0,00
10913,-7,55,-3,92,-4,90,-383,25,0,00,0,00,-447,17,0,00,0,00
10930,-7,55,-3,92,-4,90,-383,25,0,00,0,00,-440,78,0,00,0,00
10959,-6,76,-3,04,-8,13,-576,11,0,00,0,00,-454,31,0,00,0,00
10975,-7,84,-3,43,-6,96,-487,23,0,00,0,00,-457,61,0,00,0,00
10992,-7,84,-3,43,-4,70,-344,26,0,00,0,00,-446,27,0,00,0,00
11009,-7,06,-4,70,-4,70,-414,42,0,00,0,00,-443,09,0,00,0,00
11025,-7,06,-4,70,-7,35,-581,82,0,00,0,00,-456,96,0,00,0,00
11041,-4,90,-3,53,-7,35,-526,49,0,00,0,00,-463,91,0,00,0,00
11057,-4,90,-3,53,-7,35,-526,49,0,00,0,00,-470,17,0,00,0,00
11073,-4,90,-3,53,-7,35,-526,49,0,00,0,00,-475,80,0,00,0,00
11089,-4,90,-3,63,-8,43,-637,72,0,00,0,00,-491,99,0,00,0,00
11105,-6,47,-3,63,-8,43,-637,72,0,00,0,00,-506,57,0,00,0,00
11121,-6,47,-3,82,-6,47,-472,76,0,00,0,00,-503,19,0,00,0,00
11137,-5,98,-3,82,-6,47,-472,76,0,00,0,00,-500,14,0,00,0,00
11153,-4,21,-3,63,-6,27,-447,47,0,00,0,00,-494,88,0,00,0,00
11169,-4,21,-3,63,-6,27,-447,47,0,00,0,00,-490,14,0,00,0,00
11185,-3,43,-3,43,-9,31,-733,52,0,00,0,00,-514,47,0,00,0,00
11201,-3,43,-3,43,-9,31,-733,52,0,00,0,00,-536,38,0,00,0,00
11217,-3,43,-3,14,-9,51,-753,54,0,00,0,00,-558,09,0,00,0,00
11233,-3,43,-3,14,-8,72,-650,78,0,00,0,00,-567,36,0,00,0,00
11249,-2,74,-3,14,-8,72,-650,78,0,00,0,00,-575,71,0,00,0,00
11265,-2,74,-3,14,-6,96,-468,53,0,00,0,00,-564,99,0,00,0,00
11281,-2,65,-2,84,-6,96,-447,28,0,00,0,00,-553,22,0,00,0,00
11297,-2,65,-2,65,-10,09,-834,24,0,00,0,00,-581,32,0,00,0,00
11313,-1,57,-2,65,-10,09,-834,24,0,00,0,00,-606,61,0,00,0,00
11329,-1,57,-1,67,-8,82,-573,59,0,00,0,00,-603,31,0,00,0,00
11345,-1,08,-1,67,-8,82,-573,59,0,00,0,00,-600,34,0,00,0,00
11361,-1,08,-1,08,-8,53,-451,86,0,00,0,00,-585,49,0,00,0,00
11377,-1,96,-1,08,-8,53,-451,86,0,00,0,00,-572,13,0,00,0,00
11393,-0,78,-0,20,-10,88,-1231,16,0,00,0,00,-638,03,0,00,0,00
11426,-0,88,-0,49,-11,47,-1294,29,0,00,0,00,-703,66,0,00,0,00
11442,-0,88,-0,49,-11,47,-1294,29,0,00,0,00,-762,72,0,00,0,00
11458,-1,57,-0,29,-7,55,-193,34,0,00,0,00,-705,78,0,00,0,00
11474,-1,57,-0,29,-11,66,-1371,23,0,00,0,00,-772,33,0,00,0,00
11490,-0,88,1,27,-11,66,1464,78,0,00,0,00,-548,62,0,00,0,00
11506,-0,88,1,27,-13,23,1553,45,0,00,0,00,-338,41,0,00,0,00
11522,-0,78,1,76,-13,23,1478,21,0,00,0,00,-156,75,0,00,0,00
11538,-0,78,1,86,-10,58,1050,74,0,00,0,00,-36,00,0,00,0,00
11554,-0,49,1,86,-10,58,1050,74,0,00,0,00,72,67,0,00,0,00
11570,-0,49,1,86,-10,58,1050,74,0,00,0,00,170,48,0,00,0,00
11586,-0,49,1,86,-10,58,1050,74,0,00,0,00,258,51,0,00,0,00
11602,-0,49,1,37,-9,11,340,97,0,00,0,00,266,75,0,00,0,00
11618,-1,27,1,37,-9,11,340,97,0,00,0,00,274,18,0,00,0,00
11634,-1,27,1,86,-10,39,977,43,0,00,0,00,344,50,0,00,0,00
11650,-1,27,1,86,-10,39,977,43,0,00,0,00,407,79,0,00,0,00
11666,-0,49,2,16,-10,09,844,70,0,00,0,00,451,49,0,00,0,00
11682,-0,49,2,16,-10,09,844,70,0,00,0,00,490,81,0,00,0,00
11698,-0,78,2,16,-9,51,647,52,0,00,0,00,506,48,0,00,0,00
11714,-0,78,2,16,-10,29,914,33,0,00,0,00,547,26,0,00,0,00
11730,-0,49,2,16,-10,29,914,33,0,00,0,00,583,97,0,00,0,00
11746,-0,49,2,16,-9,70,709,25,0,00,0,00,596,50,0,00,0,00
11762,-0,29,2,65,-9,70,737,42,0,00,0,00,610,59,0,00,0,00
11778,-0,29,2,55,-9,80,760,11,0,00,0,00,625,54,0,00,0,00
11794,-0,59,2,55,-9,80,760,11,0,00,0,00,639,00,0,00,0,00
11810,-0,59,3,04,-9,11,630,05,0,00,0,00,638,10,0,00,0,00
11841,0,20,3,63,-8,82,620,92,0,00,0,00,636,39,0,00,0,00
11857,0,20,3,63,-8,82,620,92,0,00,0,00,634,84,0,00,0,00
11873,-0,20,3,63,-9,60,748,87,0,00,0,00,646,24,0,00,0,00
11889,-0,20,3,63,-9,60,748,87,0,00,0,00,656,50,0,00,0,00
11905,0,59,4,12,-9,21,702,23,0,00,0,00,661,08,0,00,0,00
11921,0,59,4,12,-9,21,702,23,0,00,0,00,665,19,0,00,0,00
11937,1,27,4,70,-9,21,719,47,0,00,0,00,670,62,0,00,0,00
11955,1,27,4,70,-9,41,744,72,0,00,0,00,678,03,0,00,0,00
11975,0,29,4,12,-9,41,731,39,0,00,0,00,683,37,0,00,0,00
11992,0,59,4,12,-9,02,675,23,0,00,0,00,682,55,0,00,0,00
12009,0,59,4,12,-9,02,675,23,0,00,0,00,681,82,0,00,0,00
12025,1,08,4,90,-9,21,724,37,0,00,0,00,686,07,0,00,0,00
12042,1,08,4,90,-9,21,724,37,0,00,0,00,689,90,0,00,0,00
12059,1,08,4,90,-9,21,724,37,0,00,0,00,693,35,0,00,0,00
12075,1,08,4,90,-8,72,667,21,0,00,0,00,690,74,0,00,0,00
12092,0,88,4,70,-8,72,659,85,0,00,0,00,687,65,0,00,0,00
12109,0,88,4,61,-9,02,693,09,0,00,0,00,688,19,0,00,0,00
12125,0,49,4,61,-9,02,693,09,0,00,0,00,688,68,0,00,0,00
12142,1,27,5,00,-8,92,693,15,0,00,0,00,689,13,0,00,0,00
12158,1,27,5,00,-8,92,693,15,0,00,0,00,689,53,0,00,0,00
12175,1,37,5,49,-8,72,685,64,0,00,0,00,689,14,0,00,0,00
12192,1,37,5,49,-8,23,637,32,0,00,0,00,683,96,0,00,0,00
12208,0,78,4,90,-8,23,613,67,0,00,0,00,676,93,0,00,0,00
12225,0,78,4,90,-8,23,613,67,0,00,0,00,670,60,0,00,0,00
12241,0,88,5,29,-8,23,629,88,0,00,0,00,666,53,0,00,0,00
12257,0,88,5,29,-8,82,690,46,0,00,0,00,668,93,0,00,0,00
12273,0,88,5,59,-8,82,698,37,0,00,0,00,671,87,0,00,0,00
12289,0,88,5,59,-8,82,698,37,0,00,0,00,674,52,0,00,0,00
12305,0,88,5,59,-8,82,698,37,0,00,0,00,676,91,0,00,0,00
12321,0,88,5,88,-7,74,607,57,0,00,0,00,669,97,0,00,0,00
12337,0,78,5,88,-7,74,607,57,0,00,0,00,663,73,0,00,0,00
12353,1,08,5,98,-8,04,636,75,0,00,0,00,661,03,0,00,0,00
12369,1,08,5,98,-8,04,636,75,0,00,0,00,658,61,0,00,0,00
12385,0,78,6,08,-8,23,656,39,0,00,0,00,658,38,0,00,0,00
12401,0,78,6,08,-8,23,656,39,0,00,0,00,658,18,0,00,0,00
12417,0,78,6,08,-8,23,656,39,0,00,0,00,658,00,0,00,0,00
12433,0,78,6,08,-8,04,639,96,0,00,0,00,656,20,0,00,0,00
12449,0,78,6,27,-8,04,645,77,0,00,0,00,655,16,0,00,0,00
12465,0,78,6,27,-8,23,661,76,0,00,0,00,655,82,0,00,0,00
12481,0,78,6,27,-8,23,661,76,0,00,0,00,656,41,0,00,0,00
12497,0,78,6,27,-7,45,598,36,0,00,0,00,650,61,0,00,0,00
12513,0,59,6,27,-7,45,598,36,0,00,0,00,645,38,0,00,0,00
12529,0,59,6,47,-7,94,643,46,0,00,0,00,645,19,0,00,0,00
12545,0,59,6,47,-7,94,643,46,0,00,0,00,645,02,0,00,0,00
12561,0,59,6,47,-7,94,643,46,0,00,0,00,644,86,0,00,0,00
12577,0,59,6,47,-7,94,643,46,0,00,0,00,644,72,0,00,0,00
12593,0,59,6,57,-7,55,616,13,0,00,0,00,641,86,0,00,0,00
12609,0,59,6,57,-7,55,616,13,0,00,0,00,639,29,0,00,0,00
12641,0,88,6,86,-7,64,631,61,0,00,0,00,638,52,0,00,0,00
12657,0,49,6,76,-7,64,628,72,0,00,0,00,637,54,0,00,0,00
12673,0,49,6,76,-7,15,593,13,0,00,0,00,633,10,0,00,0,00
12689,0,78,6,57,-7,15,586,62,0,00,0,00,628,45,0,00,0,00
12705,0,78,6,57,-8,23,669,60,0,00,0,00,632,57,0,00,0,00
12721,0,78,6,96,-8,23,678,76,0,00,0,00,637,19,0,00,0,00
12737,0,78,6,66,-7,94,648,81,0,00,0,00,638,35,0,00,0,00
12753,0,59,6,66,-7,94,648,81,0,00,0,00,639,39,0,00,0,00
12769,0,59,6,27,-7,06,569,00,0,00,0,00,632,36,0,00,0,00
12785,0,29,6,27,-7,06,569,00,0,00,0,00,626,02,0,00,0,00
12801,0,29,6,47,-7,45,605,29,0,00,0,00,623,95,0,00,0,00
12817,0,49,6,47,-7,45,605,29,0,00,0,00,622,08,0,00,0,00
12833,0,59,6,47,-7,94,643,46,0,00,0,00,624,22,0,00,0,00
12849,0,59,6,47,-7,94,643,46,0,00,0,00,626,14,0,00,0,00
12865,0,59,6,47,-7,94,643,46,0,00,0,00,627,88,0,00,0,00
12881,0,59,6,47,-7,94,643,46,0,00,0,00,629,44,0,00,0,00
12897,0,29,6,27,-8,43,678,93,0,00,0,00,634,38,0,00,0,00
12913,0,29,6,27,-8,62,695,55,0,00,0,00,640,50,0,00,0,00
12929,0,29,5,78,-8,62,683,65,0,00,0,00,644,82,0,00,0,00
12945,0,29,5,78,-8,43,665,68,0,00,0,00,646,90,0,00,0,00
12961,0,78,6,08,-8,43,674,05,0,00,0,00,649,62,0,00,0,00
12977,0,78,5,98,-8,33,662,34,0,00,0,00,650,89,0,00,0,00
12993,0,59,5,98,-8,33,662,34,0,00,0,00,652,03,0,00,0,00
13025,0,49,5,39,-8,33,643,45,0,00,0,00,651,18,0,00,0,00
13041,0,49,5,39,-8,33,643,45,0,00,0,00,650,40,0,00,0,00
13057,0,49,5,39,-8,33,643,45,0,00,0,00,649,71,0,00,0,00
13073,0,00,5,10,-8,62,663,13,0,00,0,00,651,05,0,00,0,00
13089,0,00,5,10,-8,62,663,13,0,00,0,00,652,26,0,00,0,00
13105,0,49,5,10,-8,23,622,29,0,00,0,00,649,26,0,00,0,00
13121,0,49,5,10,-8,23,622,29,0,00,0,00,646,56,0,00,0,00
13137,0,29,4,51,-9,70,779,83,0,00,0,00,659,89,0,00,0,00
13153,0,29,4,51,-10,39,873,98,0,00,0,00,681,30,0,00,0,00
13169,0,00,4,21,-10,39,878,05,0,00,0,00,700,98,0,00,0,00
13185,0,00,4,21,-9,41,733,74,0,00,0,00,704,25,0,00,0,00
13201,0,29,3,92,-9,41,725,72,0,00,0,00,706,40,0,00,0,00
13217,0,29,3,92,-9,41,725,72,0,00,0,00,708,33,0,00,0,00
13233,0,49,3,92,-9,41,725,72,0,00,0,00,710,07,0,00,0,00
13249,0,49,2,94,-9,41,684,36,0,00,0,00,707,50,0,00,0,00
13265,-0,20,2,94,-9,41,684,36,0,00,0,00,705,19,0,00,0,00
13281,-0,20,2,35,-9,31,611,50,0,00,0,00,695,82,0,00,0,00
13297,0,00,2,35,-9,31,611,50,0,00,0,00,687,39,0,00,0,00
13313,-0,20,2,16,-9,51,647,52,0,00,0,00,683,40,0,00,0,00
13329,-0,20,2,16,-9,51,647,52,0,00,0,00,679,81,0,00,0,00
13345,-0,20,1,57,-10,29,969,97,0,00,0,00,708,83,0,00,0,00
13361,-0,20,1,57,-10,29,969,97,0,00,0,00,734,94,0,00,0,00
13377,0,00,1,67,-10,09,853,99,0,00,0,00,746,85,0,00,0,00
13393,0,00,1,67,-9,51,571,59,0,00,0,00,729,32,0,00,0,00
13409,-0,20,0,88,-9,51,201,39,0,00,0,00,676,53,0,00,0,00
13441,-0,20,0,69,-9,90,84,30,0,00,0,00,617,31,0,00,0,00
13457,-0,20,0,39,-10,09,-926,54,0,00,0,00,462,92,0,00,0,00
13473,-0,20,0,39,-10,09,-926,54,0,00,0,00,323,98,0,00,0,00
13489,-0,20,-0,20,-9,60,-581,00,0,00,0,00,233,48,0,00,0,00
13505,-0,29,-0,20,-9,60,-581,00,0,00,0,00,152,03,0,00,0,00
13521,-0,29,-0,29,-9,51,-561,75,0,00,0,00,80,65,0,00,0,00
13537,-0,29,-0,29,-9,51,-561,75,0,00,0,00,16,41,0,00,0,00
13553,-0,29,-0,29,-9,51,-561,75,0,00,0,00,-41,40,0,00,0,00
13569,-0,29,-0,29,-9,51,-561,75,0,00,0,00,-93,44,0,00,0,00
13585,-0,59,-0,39,-10,39,-995,41,0,00,0,00,-183,64,0,00,0,00
13601,-0,59,-0,39,-10,39,-995,41,0,00,0,00,-264,81,0,00,0,00
13617,0,00,-0,78,-9,90,-776,46,0,00,0,00,-315,98,0,00,0,00
13633,0,00,-0,78,-10,09,-845,28,0,00,0,00,-368,91,0,00,0,00
13649,0,29,-0,78,-10,09,-845,28,0,00,0,00,-416,55,0,00,0,00
13665,0,29,-0,78,-10,00,-812,62,0,00,0,00,-456,15,0,00,0,00
13681,0,00,-0,88,-10,00,-813,47,0,00,0,00,-491,88,0,00,0,00
13697,0,00,-0,88,-9,90,-779,63,0,00,0,00,-520,66,0,00,0,00
13713,0,20,-1,57,-9,90,-793,78,0,00,0,00,-547,97,0,00,0,00
13729,0,20,-1,96,-9,70,-758,84,0,00,0,00,-569,06,0,00,0,00
13745,0,00,-1,96,-9,70,-758,84,0,00,0,00,-588,04,0,00,0,00
13761,0,00,-1,96,-9,51,-721,85,0,00,0,00,-601,42,0,00,0,00
13777,-0,20,-1,96,-9,51,-721,85,0,00,0,00,-613,46,0,00,0,00
13793,-0,78,-1,76,-9,90,-796,28,0,00,0,00,-631,74,0,00,0,00
13809,-0,78,-1,76,-9,90,-796,28,0,00,0,00,-648,20,0,00,0,00
13841,-0,49,-1,96,-9,90,-798,51,0,00,0,00,-663,23,0,00,0,00
13857,-0,20,-1,96,-9,90,-798,51,0,00,0,00,-676,76,0,00,0,00
13873,-0,20,-1,96,-10,09,-836,49,0,00,0,00,-692,73,0,00,0,00
13889,-0,29,-2,16,-10,09,-835,72,0,00,0,00,-707,03,0,00,0,00
13905,-0,29,-2,16,-9,11,-659,35,0,00,0,00,-702,26,0,00,0,00
13921,-0,20,-2,65,-9,11,-682,63,0,00,0,00,-700,30,0,00,0,00
13937,-0,20,-2,65,-9,11,-682,63,0,00,0,00,-698,53,0,00,0,00
13953,-0,20,-2,65,-9,11,-682,63,0,00,0,00,-696,94,0,00,0,00
13969,-0,20,-2,45,-10,09,-834,79,0,00,0,00,-710,73,0,00,0,00
13985,-0,59,-2,45,-10,09,-834,79,0,00,0,00,-723,13,0,00,0,00
14001,-0,59,-2,35,-10,19,-852,49,0,00,0,00,-736,07,0,00,0,00
14017,0,00,-2,35,-10,19,-852,49,0,00,0,00,-747,71,0,00,0,00
14033,0,00,-2,35,-10,19,-852,49,0,00,0,00,-758,19,0,00,0,00
14049,0,00,-2,35,-10,19,-852,49,0,00,0,00,-767,62,0,00,0,00
14065,-0,20,-2,45,-9,70,-769,26,0,00,0,00,-767,78,0,00,0,00
14081,-0,20,-2,45,-9,70,-769,26,0,00,0,00,-767,93,0,00,0,00
14097,0,59,-1,37,-9,21,-623,28,0,00,0,00,-753,46,0,00,0,00
14113,0,59,-1,37,-9,80,-765,09,0,00,0,00,-754,63,0,00,0,00
14129,0,78,-0,88,-9,80,-746,16,0,00,0,00,-753,78,0,00,0,00
14145,0,78,-0,88,-10,19,-877,81,0,00,0,00,-766,18,0,00,0,00
14161,0,88,-1,08,-10,19,-871,88,0,00,0,00,-776,75,0,00,0,00
14177,0,88,-1,27,-9,70,-735,45,0,00,0,00,-772,62,0,00,0,00
14193,1,08,-1,27,-9,70,-735,45,0,00,0,00,-768,91,0,00,0,00
14209,1,08,-1,08,-9,51,-672,04,0,00,0,00,-759,22,0,00,0,00
14241,0,29,-1,37,-10,39,-916,09,0,00,0,00,-774,91,0,00,0,00
14257,1,86,-1,37,-10,39,-916,09,0,00,0,00,-789,02,0,00,0,00
14273,2,16,-0,98,-10,88,-1074,48,0,00,0,00,-817,57,0,00,0,00
14289,2,16,-0,98,-10,88,-1074,48,0,00,0,00,-843,26,0,00,0,00
14305,2,35,-0,69,-10,88,-1117,99,0,00,0,00,-870,73,0,00,0,00
14321,2,35,-0,69,-10,88,-1117,99,0,00,0,00,-895,46,0,00,0,00
14337,1,96,-0,78,-10,09,-845,28,0,00,0,00,-890,44,0,00,0,00
14353,1,96,-0,78,-9,90,-776,46,0,00,0,00,-879,04,0,00,0,00
14369,2,65,-0,98,-9,90,-782,41,0,00,0,00,-869,38,0,00,0,00
14385,2,65,-0,98,-9,21,-581,46,0,00,0,00,-840,59,0,00,0,00
14401,4,02,-1,37,-9,21,-623,28,0,00,0,00,-818,86,0,00,0,00
14417,4,02,-1,37,-9,60,-714,90,0,00,0,00,-808,46,0,00,0,00
14433,4,31,-1,37,-9,60,-714,90,0,00,0,00,-799,11,0,00,0,00
14449,4,31,-0,10,-9,21,-393,73,0,00,0,00,-758,57,0,00,0,00
14465,5,88,-0,10,-9,21,-393,73,0,00,0,00,-722,08,0,00,0,00
14481,5,88,2,25,-8,92,502,75,0,00,0,00,-599,60,0,00,0,00
14497,9,11,2,25,-8,92,502,75,0,00,0,00,-489,37,0,00,0,00
14513,10,39,2,65,-8,43,467,73,0,00,0,00,-393,66,0,00,0,00
14529,10,39,2,65,-8,43,467,73,0,00,0,00,-307,52,0,00,0,00
14546,10,39,2,65,-8,43,467,73,0,00,0,00,-229,99,0,00,0,00
14562,10,39,2,65,-8,43,467,73,0,00,0,00,-160,22,0,00,0,00
14578,8,04,-0,59,-4,80,-123,94,0,00,0,00,-156,59,0,00,0,00
14594,8,04,-0,59,-6,27,-169,46,0,00,0,00,-157,88,0,00,0,00
14610,7,45,-1,47,-6,27,-271,41,0,00,0,00,-169,23,0,00,0,00
14641,4,61,-4,80,-3,82,-379,24,0,00,0,00,-190,23,0,00,0,00
14658,4,61,-4,41,-3,92,-364,24,0,00,0,00,-207,63,0,00,0,00
14674,7,84,-4,41,-3,92,-364,24,0,00,0,00,-223,30,0,00,0,00
14690,7,84,-2,94,-6,08,-388,68,0,00,0,00,-239,83,0,00,0,00
14706,9,11,-2,94,-6,08,-388,68,0,00,0,00,-254,72,0,00,0,00
14722,9,11,-2,94,-5,88,-375,80,0,00,0,00,-266,83,0,00,0,00
14738,8,53,-2,94,-5,88,-375,80,0,00,0,00,-277,72,0,00,0,00
14754,8,53,-3,43,-4,12,-318,44,0,00,0,00,-281,80,0,00,0,00
14770,8,53,-3,43,-4,12,-318,44,0,00,0,00,-285,46,0,00,0,00
14786,10,00,-3,63,-2,84,-283,02,0,00,0,00,-285,22,0,00,0,00
14802,10,00,-3,63,-2,84,-283,02,0,00,0,00,-285,00,0,00,0,00
14818,10,39,-3,53,-2,94,-280,81,0,00,0,00,-284,58,0,00,0,00
14834,10,39,-3,53,-2,06,-254,67,0,00,0,00,-281,59,0,00,0,00
14850,9,41,-3,14,-2,06,-234,14,0,00,0,00,-276,84,0,00,0,00
14866,9,41,-3,14,0,49,-182,46,0,00,0,00,-267,40,0,00,0,00
14882,9,11,-3,43,0,49,-195,16,0,00,0,00,-260,18,0,00,0,00
14898,9,11,-4,70,-0,10,-260,37,0,00,0,00,-260,20,0,00,0,00
14914,8,04,-4,70,-0,10,-260,37,0,00,0,00,-260,22,0,00,0,00
14930,8,04,-4,51,-1,18,-278,11,0,00,0,00,-262,01,0,00,0,00
14946,9,21,-4,51,-1,18,-278,11,0,00,0,00,-263,62,0,00,0,00
14962,9,21,-4,31,-0,59,-254,95,0,00,0,00,-262,75,0,00,0,00
14992,8,92,-4,02,0,00,-229,71,0,00,0,00,-259,45,0,00,0,00
15009,8,92,-4,02,0,00,-229,71,0,00,0,00,-256,47,0,00,0,00
15025,8,92,-4,02,0,00,-229,71,0,00,0,00,-253,80,0,00,0,00
15041,8,92,-4,02,0,00,-229,71,0,00,0,00,-251,39,0,00,0,00
15057,8,53,-4,12,2,55,-191,08,0,00,0,00,-245,36,0,00,0,00
15073,8,53,-4,12,3,43,-179,57,0,00,0,00,-238,78,0,00,0,00
15089,7,84,-4,12,3,43,-179,57,0,00,0,00,-232,86,0,00,0,00
15105,7,84,-4,12,3,23,-182,07,0,00,0,00,-227,78,0,00,0,00
15121,8,04,-3,92,3,23,-175,03,0,00,0,00,-222,50,0,00,0,00
15137,8,04,-3,14,5,00,-130,38,0,00,0,00,-213,29,0,00,0,00
15153,6,96,-3,14,5,00,-130,38,0,00,0,00,-205,00,0,00,0,00
15169,6,96,-2,84,5,49,-116,81,0,00,0,00,-196,18,0,00,0,00
15185,5,98,-2,84,5,49,-116,81,0,00,0,00,-188,24,0,00,0,00
15201,5,98,-2,25,7,25,-87,90,0,00,0,00,-178,21,0,00,0,00
15217,5,59,-2,25,7,25,-87,90,0,00,0,00,-169,18,0,00,0,00
15233,4,80,-2,25,8,43,-82,38,0,00,0,00,-160,50,0,00,0,00
15251,4,80,-2,25,8,43,-82,38,0,00,0,00,-152,69,0,00,0,00
15278,4,80,-1,37,8,92,-56,30,0,00,0,00,-143,05,0,00,0,00
15295,2,65,-0,98,9,31,-44,67,0,00,0,00,-133,21,0,00,0,00
15311,2,65,-0,98,9,31,-44,67,0,00,0,00,-124,36,0,00,0,00
15327,1,86,-0,59,10,39,-32,33,0,00,0,00,-115,15,0,00,0,00
15344,1,86,-0,59,10,09,-32,81,0,00,0,00,-106,92,0,00,0,00
15360,2,74,-0,39,10,09,-27,61,0,00,0,00,-98,99,0,00,0,00
15376,2,74,-0,39,9,31,-28,72,0,00,0,00,-91,96,0,00,0,00
15396,3,82,-0,39,9,31,-28,72,0,00,0,00,-85,64,0,00,0,00
15412,3,04,-0,29,9,70,-25,50,0,00,0,00,-79,62,0,00,0,00
15429,3,04,-0,29,9,70,-25,50,0,00,0,00,-74,21,0,00,0,00
15445,2,74,-0,29,9,41,-25,88,0,00,0,00,-69,38,0,00,0,00
15466,2,74,-0,29,9,31,-26,01,0,00,0,00,-65,04,0,00,0,00
15482,3,04,-0,39,9,31,-28,72,0,00,0,00,-61,41,0,00,0,00
15501,3,04,-0,29,9,21,-26,14,0,00,0,00,-57,88,0,00,0,00
15519,3,04,-0,29,9,21,-26,14,0,00,0,00,-54,71,0,00,0,00
15537,3,04,-0,29,9,21,-26,14,0,00,0,00,-51,85,0,00,0,00
15553,3,04,-0,29,8,72,-26,83,0,00,0,00,-49,35,0,00,0,00
15575,2,94,-0,49,8,72,-32,41,0,00,0,00,-47,66,0,00,0,00
15593,4,21,0,00,8,92,-18,52,0,00,0,00,-44,74,0,00,0,00
15609,4,21,0,00,8,92,-18,52,0,00,0,00,-42,12,0,00,0,00
15625,4,21,0,00,8,92,-18,52,0,00,0,00,-39,76,0,00,0,00
15674,4,21,0,00,8,92,-18,52,0,00,0,00,-37,63,0,00,0,00
15700,4,02,-0,20,9,11,-23,81,0,00,0,00,-36,25,0,00,0,00
15731,4,02,-0,39,8,33,-30,25,0,00,0,00,-35,65,0,00,0,00
15756,6,37,-0,59,8,33,-35,95,0,00,0,00,-35,68,0,00,0,00
15786,6,37,-0,59,8,33,-35,95,0,00,0,00,-35,71,0,00,0,00
15813,6,37,-0,20,6,96,-26,82,0,00,0,00,-34,82,0,00,0,00
15849,7,06,-0,20,6,96,-26,82,0,00,0,00,-34,02,0,00,0,00
15878,7,25,-0,39,5,98,-34,67,0,00,0,00,-34,09,0,00,0,00
15911,8,92,-0,98,5,00,-57,38,0,00,0,00,-36,42,0,00,0,00
15950,7,84,-0,88,1,27,-71,53,0,00,0,00,-39,93,0,00,0,00
15968,9,60,-0,69,1,27,-62,84,0,00,0,00,-42,22,0,00,0,00
15999,10,39,-0,10,-0,29,-41,34,0,00,0,00,-42,13,0,00,0,00
16021,9,90,-0,29,-1,86,-61,31,0,00,0,00,-44,05,0,00,0,00
16042,9,90,-0,29,-1,86,-61,31,0,00,0,00,-45,77,0,00,0,00
16062,9,90,-0,29,-2,45,-66,03,0,00,0,00,-47,80,0,00,0,00
16078,9,11,-0,78,-2,45,-99,14,0,00,0,00,-52,93,0,00,0,00
16096,9,11,-0,78,-3,53,-115,11,0,00,0,00,-59,15,0,00,0,00
16112,8,62,-0,88,-3,53,-122,79,0,00,0,00,-65,52,0,00,0,00
16129,8,62,-0,59,-4,31,-113,68,0,00,0,00,-70,33,0,00,0,00
16145,9,21,-0,59,-4,31,-113,68,0,00,0,00,-74,67,0,00,0,00
16161,8,82,-0,29,-5,68,-113,79,0,00,0,00,-78,58,0,00,0,00
16177,8,82,-0,29,-5,68,-113,79,0,00,0,00,-82,10,0,00,0,00
16224,8,92,-0,49,-5,39,-128,40,0,00,0,00,-86,73,0,00,0,00
16240,8,82,-0,10,-6,17,-103,08,0,00,0,00,-88,37,0,00,0,00
16260,6,76,-0,10,-8,33,-222,35,0,00,0,00,-101,76,0,00,0,00
16279,6,76,0,00,-8,62,-231,70,0,00,0,00,-114,76,0,00,0,00
16296,6,47,0,00,-8,62,-231,70,0,00,0,00,-126,45,0,00,0,00
16311,6,47,-0,29,-8,72,-330,76,0,00,0,00,-146,88,0,00,0,00
16327,5,88,-0,29,-8,72,-330,76,0,00,0,00,-165,27,0,00,0,00
16343,3,82,0,10,-9,21,-316,65,0,00,0,00,-180,41,0,00,0,00
16359,3,82,0,10,-9,21,-316,65,0,00,0,00,-194,03,0,00,0,00
16375,3,72,-0,39,-8,92,-398,82,0,00,0,00,-214,51,0,00,0,00
16392,3,72,-0,39,-8,92,-398,82,0,00,0,00,-232,94,0,00,0,00
16409,3,72,-0,98,-9,70,-719,97,0,00,0,00,-281,65,0,00,0,00
16425,3,72,-0,98,-9,41,-634,87,0,00,0,00,-316,97,0,00,0,00
16442,1,67,-1,57,-9,41,-682,32,0,00,0,00,-353,50,0,00,0,00
16459,1,67,-2,16,-8,72,-596,75,0,00,0,00,-377,83,0,00,0,00
16475,1,27,-2,16,-8,72,-596,75,0,00,0,00,-399,72,0,00,0,00
16492,-2,16,-1,47,-7,84,-405,81,0,00,0,00,-400,33,0,00,0,00
16509,-2,16,-1,47,-7,84,-405,81,0,00,0,00,-400,88,0,00,0,00
16525,-2,16,-1,47,-7,84,-405,81,0,00,0,00,-401,37,0,00,0,00
16542,-2,16,-1,47,-10,98,-1044,25,0,00,0,00,-465,66,0,00,0,00
16559,-1,86,-0,88,-10,98,-1113,54,0,00,0,00,-530,45,0,00,0,00
16575,-1,86,-0,88,-10,00,-813,47,0,00,0,00,-558,75,0,00,0,00
16593,1,86,-0,69,-10,00,-811,76,0,00,0,00,-584,05,0,00,0,00
16609,1,86,-0,78,-10,09,-845,28,0,00,0,00,-610,17,0,00,0,00
16625,3,72,-0,78,-10,09,-845,28,0,00,0,00,-633,68,0,00,0,00
16642,3,72,-0,88,-10,00,-813,47,0,00,0,00,-651,66,0,00,0,00
16658,-0,20,-0,88,-10,00,-813,47,0,00,0,00,-667,84,0,00,0,00
16674,-1,37,0,10,-10,00,-792,42,0,00,0,00,-680,30,0,00,0,00
16690,-1,37,0,10,-10,00,-792,42,0,00,0,00,-691,51,0,00,0,00
16706,-3,43,0,59,-10,78,-1596,47,0,00,0,00,-782,01,0,00,0,00
16722,-3,43,0,59,-10,78,-1596,47,0,00,0,00,-863,45,0,00,0,00
16738,-4,21,0,78,-10,29,1433,07,0,00,0,00,-633,80,0,00,0,00
16754,-4,21,0,78,-11,66,1615,18,0,00,0,00,-408,90,0,00,0,00
16770,-2,94,1,47,-11,66,1410,26,0,00,0,00,-226,99,0,00,0,00
16786,-2,94,1,47,-10,68,1181,32,0,00,0,00,-86,16,0,00,0,00
16802,-2,74,0,49,-10,68,-1509,63,0,00,0,00,-228,50,0,00,0,00
16818,-2,74,0,00,-7,84,-155,22,0,00,0,00,-221,17,0,00,0,00
16834,-2,74,0,00,-7,84,-155,22,0,00,0,00,-214,58,0,00,0,00
16850,-2,74,0,29,-8,43,-121,51,0,00,0,00,-205,27,0,00,0,00
16866,-2,74,0,29,-8,43,-121,51,0,00,0,00,-196,90,0,00,0,00
16882,-2,74,0,29,-10,00,-775,78,0,00,0,00,-254,78,0,00,0,00
16898,-4,21,0,29,-10,00,-775,78,0,00,0,00,-306,88,0,00,0,00
16914,-4,80,-0,10,-7,74,-169,68,0,00,0,00,-293,16,0,00,0,00
16930,-4,80,-0,10,-7,74,-169,68,0,00,0,00,-280,81,0,00,0,00
16946,-3,82,0,59,-7,15,-14,20,0,00,0,00,-254,15,0,00,0,00
16962,-3,82,0,59,-7,15,-14,20,0,00,0,00,-230,16,0,00,0,00
16978,-9,70,-1,18,-6,08,-229,72,0,00,0,00,-230,11,0,00,0,00
16994,-9,70,-1,18,-5,98,-224,72,0,00,0,00,-229,57,0,00,0,00
17010,-9,11,-1,86,-5,98,-292,97,0,00,0,00,-235,91,0,00,0,00
17042,-9,11,-1,86,-5,98,-292,97,0,00,0,00,-241,62,0,00,0,00
17058,-9,11,-1,08,-5,98,-213,89,0,00,0,00,-238,85,0,00,0,00
17074,-8,13,-1,08,-5,98,-213,89,0,00,0,00,-236,35,0,00,0,00
17090,-8,13,-1,18,-6,47,-251,33,0,00,0,00,-237,85,0,00,0,00
17106,-8,13,-1,18,-6,47,-251,33,0,00,0,00,-239,20,0,00,0,00
17122,-8,13,-2,35,-5,19,-292,79,0,00,0,00,-244,56,0,00,0,00
17138,-9,41,-2,35,-5,19,-292,79,0,00,0,00,-249,38,0,00,0,00
17154,-10,98,-3,04,-3,14,-259,33,0,00,0,00,-250,37,0,00,0,00
17170,-10,98,-3,04,-3,14,-259,33,0,00,0,00,-251,27,0,00,0,00
17186,-10,49,-2,25,-3,72,-227,50,0,00,0,00,-248,89,0,00,0,00
17202,-10,49,-2,25,-3,72,-227,50,0,00,0,00,-246,75,0,00,0,00
17218,-9,41,-1,57,-2,74,-156,45,0,00,0,00,-237,72,0,00,0,00
17234,-9,41,-1,57,-1,86,-140,44,0,00,0,00,-228,00,0,00,0,00
17250,-9,90,-1,08,-1,86,-110,72,0,00,0,00,-216,27,0,00,0,00
17266,-9,90,-1,08,-2,45,-119,04,0,00,0,00,-206,54,0,00,0,00
17282,-10,49,-0,78,-2,45,-99,14,0,00,0,00,-195,80,0,00,0,00
17298,-10,49,-0,78,-0,69,-80,80,0,00,0,00,-184,30,0,00,0,00
17314,-10,78,-0,78,-0,69,-80,80,0,00,0,00,-173,95,0,00,0,00
17330,-10,78,-0,78,0,20,-73,87,0,00,0,00,-163,94,0,00,0,00
17346,-10,39,-0,78,0,20,-73,87,0,00,0,00,-154,94,0,00,0,00
17362,-10,39,-0,59,0,49,-62,53,0,00,0,00,-145,70,0,00,0,00
17378,-10,68,-0,59,0,49,-62,53,0,00,0,00,-137,38,0,00,0,00
17394,-9,70,-1,08,2,74,-71,48,0,00,0,00,-130,79,0,00,0,00
17410,-9,70,-1,08,2,74,-71,48,0,00,0,00,-124,86,0,00,0,00
17426,-10,78,-1,18,0,00,-95,72,0,00,0,00,-121,94,0,00,0,00
17458,-9,90,-1,08,1,08,-81,99,0,00,0,00,-117,95,0,00,0,00
17474,-9,90,-1,08,2,16,-74,83,0,00,0,00,-113,64,0,00,0,00
17490,-9,11,-0,78,2,16,-62,12,0,00,0,00,-108,48,0,00,0,00
17506,-9,11,-0,78,2,45,-60,69,0,00,0,00,-103,70,0,00,0,00
17522,-9,70,-0,88,2,45,-64,84,0,00,0,00,-99,82,0,00,0,00
17538,-9,70,-0,88,2,45,-64,84,0,00,0,00,-96,32,0,00,0,00
17554,-9,70,-0,88,2,45,-64,84,0,00,0,00,-93,17,0,00,0,00
17570,-9,70,-0,88,2,45,-64,84,0,00,0,00,-90,34,0,00,0,00
17586,-9,70,-0,88,2,45,-64,84,0,00,0,00,-87,79,0,00,0,00
17602,-9,70,-0,69,2,45,-56,95,0,00,0,00,-84,70,0,00,0,00
17618,-10,19,-0,69,2,45,-56,95,0,00,0,00,-81,93,0,00,0,00
17634,-9,70,-0,29,3,23,-37,89,0,00,0,00,-77,53,0,00,0,00
17650,-9,70,-0,29,3,23,-37,89,0,00,0,00,-73,56,0,00,0,00
17666,-10,19,-0,69,3,23,-53,62,0,00,0,00,-71,57,0,00,0,00
17682,-10,19,-0,69,3,23,-53,62,0,00,0,00,-69,77,0,00,0,00
17698,-10,00,-0,78,3,14,-57,54,0,00,0,00,-68,55,0,00,0,00
17714,-10,00,-0,78,2,84,-58,87,0,00,0,00,-67,58,0,00,0,00
17730,-9,60,-0,78,2,84,-58,87,0,00,0,00,-66,71,0,00,0,00
17746,-9,60,-0,78,3,63,-55,49,0,00,0,00,-65,59,0,00,0,00
17762,-8,82,-0,69,3,63,-52,06,0,00,0,00,-64,24,0,00,0,00
17778,-8,82,-0,78,4,02,-53,96,0,00,0,00,-63,21,0,00,0,00
17794,-9,41,-0,78,4,02,-53,96,0,00,0,00,-62,28,0,00,0,00
17810,-9,41,-0,88,3,92,-58,07,0,00,0,00,-61,86,0,00,0,00
17826,-9,60,-0,88,3,92,-58,07,0,00,0,00,-61,48,0,00,0,00
17858,-8,53,-0,88,4,12,-57,25,0,00,0,00,-61,06,0,00,0,00
17874,-8,53,-0,88,4,51,-55,73,0,00,0,00,-60,53,0,00,0,00
17890,-8,53,-0,88,4,51,-55,73,0,00,0,00,-60,05,0,00,0,00
17906,-8,82,-0,78,4,31,-52,88,0,00,0,00,-59,33,0,00,0,00
17922,-8,82,-0,78,4,31,-52,88,0,00,0,00,-58,68,0,00,0,00
17938,-9,21,-0,98,4,02,-61,35,0,00,0,00,-58,95,0,00,0,00
17954,-9,21,-0,98,4,12,-60,92,0,00,0,00,-59,15,0,00,0,00
17970,-9,11,-0,88,4,12,-57,25,0,00,0,00,-58,96,0,00,0,00
17986,-9,11,-0,88,4,70,-55,02,0,00,0,00,-58,56,0,00,0,00
18002,-8,82,-0,88,4,70,-55,02,0,00,0,00,-58,21,0,00,0,00
18018,-8,82,-0,88,4,70,-55,02,0,00,0,00,-57,89,0,00,0,00
18034,-8,82,-0,88,4,70,-55,02,0,00,0,00,-57,60,0,00,0,00
18058,-8,82,-0,69,4,90,-47,66,0,00,0,00,-56,61,0,00,0,00
18075,-8,82,-0,69,5,29,-46,46,0,00,0,00,-55,59,0,00,0,00
18092,-8,92,-0,59,5,29,-43,05,0,00,0,00,-54,34,0,00,0,00
18108,-8,92,-0,69,5,10,-47,04,0,00,0,00,-53,61,0,00,0,00
18125,-8,53,-0,69,5,10,-47,04,0,00,0,00,-52,95,0,00,0,00
18141,-8,53,-0,59,5,00,-43,88,0,00,0,00,-52,04,0,00,0,00
18158,-8,13,-0,59,5,00,-43,88,0,00,0,00,-51,23,0,00,0,00
18175,-8,33,-0,39,5,29,-36,23,0,00,0,00,-49,73,0,00,0,00
18191,-8,33,-0,39,5,29,-36,23,0,00,0,00,-48,38,0,00,0,00
18208,-8,13,-0,39,5,98,-34,67,0,00,0,00,-47,01,0,00,0,00
18225,-8,13,-0,39,5,39,-36,00,0,00,0,00,-45,91,0,00,0,00
18241,-7,74,0,10,5,39,-19,35,0,00,0,00,-43,25,0,00,0,00
18257,-7,74,-0,59,4,31,-45,98,0,00,0,00,-43,52,0,00,0,00
18273,-9,60,-0,59,4,31,-45,98,0,00,0,00,-43,77,0,00,0,00
18289,-9,60,-0,49,5,39,-39,39,0,00,0,00,-43,33,0,00,0,00
18305,-7,74,-0,49,5,39,-39,39,0,00,0,00,-42,94,0,00,0,00
18321,-7,74,-0,49,5,19,-39,90,0,00,0,00,-42,63,0,00,0,00
18337,-8,33,-0,49,5,19,-39,90,0,00,0,00,-42,36,0,00,0,00
18353,-9,21,-0,29,4,21,-35,30,0,00,0,00,-41,65,0,00,0,00
18369,-9,21,-0,29,4,21,-35,30,0,00,0,00,-41,02,0,00,0,00
18385,-7,45,0,20,5,59,-15,74,0,00,0,00,-38,49,0,00,0,00
18401,-7,45,0,20,5,59,-15,74,0,00,0,00,-36,21,0,00,0,00
18417,-7,74,0,10,5,68,-18,99,0,00,0,00,-34,49,0,00,0,00
18433,-7,74,0,10,4,02,-21,23,0,00,0,00,-33,17,0,00,0,00
18449,-8,82,0,69,4,02,0,82,0,00,0,00,-29,77,0,00,0,00
18465,-8,82,0,69,4,41,0,80,0,00,0,00,-26,71,0,00,0,00
18481,-8,13,1,37,4,41,25,52,0,00,0,00,-21,49,0,00,0,00
18497,-8,13,1,67,5,00,34,98,0,00,0,00,-15,84,0,00,0,00
18513,-10,00,1,67,5,00,34,98,0,00,0,00,-10,76,0,00,0,00
18529,-10,00,1,67,5,00,34,98,0,00,0,00,-6,18,0,00,0,00
18545,-10,00,1,67,5,00,34,98,0,00,0,00,-2,07,0,00,0,00
18561,-10,00,1,47,4,70,28,58,0,00,0,00,1,00,0,00,0,00
18577,-10,49,1,47,4,70,28,58,0,00,0,00,3,75,0,00,0,00
18593,-10,49,2,25,3,53,61,02,0,00,0,00,9,48,0,00,0,00
18609,-10,49,2,25,3,53,61,02,0,00,0,00,14,64,0,00,0,00
18641,-8,62,2,16,4,61,53,36,0,00,0,00,18,51,0,00,0,00
18657,-7,84,2,35,4,61,60,10,0,00,0,00,22,67,0,00,0,00
18673,-7,84,2,35,2,55,69,83,0,00,0,00,27,38,0,00,0,00
18689,-9,60,2,35,2,55,69,83,0,00,0,00,31,63,0,00,0,00
18705,-9,60,2,35,2,45,70,39,0,00,0,00,35,51,0,00,0,00
18721,-9,90,2,45,2,45,74,52,0,00,0,00,39,41,0,00,0,00
18737,-9,90,2,45,2,84,72,29,0,00,0,00,42,69,0,00,0,00
18753,-9,11,2,25,2,84,64,26,0,00,0,00,44,85,0,00,0,00
18769,-9,11,2,65,0,69,96,05,0,00,0,00,49,97,0,00,0,00
18785,-10,98,2,65,0,69,96,05,0,00,0,00,54,58,0,00,0,00
18801,-10,98,2,94,1,08,105,98,0,00,0,00,59,72,0,00,0,00
18817,-10,49,2,94,1,08,105,98,0,00,0,00,64,34,0,00,0,00
18833,-10,00,2,74,1,76,91,40,0,00,0,00,67,05,0,00,0,00
18849,-10,00,2,74,1,76,91,40,0,00,0,00,69,49,0,00,0,00
18865,-10,39,2,94,1,08,105,98,0,00,0,00,73,13,0,00,0,00
18881,-10,39,2,94,1,08,105,98,0,00,0,00,76,42,0,00,0,00
18897,-10,39,2,74,0,88,98,60,0,00,0,00,78,64,0,00,0,00
18913,-10,39,2,74,-1,47,124,75,0,00,0,00,83,25,0,00,0,00
18929,-10,39,2,65,-1,47,119,52,0,00,0,00,86,88,0,00,0,00
18945,-10,39,2,65,-1,18,115,73,0,00,0,00,89,76,0,00,0,00
18961,-9,90,2,16,-1,18,87,73,0,00,0,00,89,56,0,00,0,00
18977,-9,90,2,16,-1,18,87,73,0,00,0,00,89,38,0,00,0,00
18993,-9,21,1,96,-1,18,76,15,0,00,0,00,88,05,0,00,0,00
19009,-9,21,2,16,-2,06,97,21,0,00,0,00,88,97,0,00,0,00
19041,-9,41,2,16,-2,06,97,21,0,00,0,00,89,79,0,00,0,00
19057,-9,41,2,16,-2,06,97,21,0,00,0,00,90,53,0,00,0,00
19073,-10,00,2,06,-2,94,101,82,0,00,0,00,91,66,0,00,0,00
19089,-10,00,2,06,-2,94,101,82,0,00,0,00,92,68,0,00,0,00
19105,-9,70,1,76,-3,72,89,99,0,00,0,00,92,41,0,00,0,00
19121,-9,70,1,76,-3,72,89,99,0,00,0,00,92,17,0,00,0,00
19137,-9,41,1,76,-3,72,89,99,0,00,0,00,91,95,0,00,0,00
19153,-9,41,1,76,-4,02,94,39,0,00,0,00,92,19,0,00,0,00
19169,-8,53,1,76,-4,02,94,39,0,00,0,00,92,41,0,00,0,00
19185,-8,53,1,76,-4,61,104,39,0,00,0,00,93,61,0,00,0,00
19201,-8,53,1,47,-4,61,77,14,0,00,0,00,91,96,0,00,0,00
19217,-8,53,1,47,-6,37,113,21,0,00,0,00,94,09,0,00,0,00
19233,-8,33,1,57,-6,37,126,81,0,00,0,00,97,36,0,00,0,00
19249,-8,33,0,98,-5,49,36,02,0,00,0,00,91,23,0,00,0,00
19265,-7,06,0,98,-5,49,36,02,0,00,0,00,85,71,0,00,0,00
19281,-7,06,1,86,-6,27,161,13,0,00,0,00,93,25,0,00,0,00
19297,-5,98,1,86,-6,27,161,13,0,00,0,00,100,04,0,00,0,00
19313,-7,25,2,25,-8,43,408,89,0,00,0,00,130,92,0,00,0,00
19329,-7,25,2,25,-8,43,408,89,0,00,0,00,158,72,0,00,0,00
19345,-6,76,2,25,-8,72,460,96,0,00,0,00,188,94,0,00,0,00
19361,-6,76,2,25,-8,72,460,96,0,00,0,00,216,14,0,00,0,00
19377,-5,68,1,86,-7,94,271,81,0,00,0,00,221,71,0,00,0,00
19393,-5,68,1,86,-8,13,293,78,0,00,0,00,228,92,0,00,0,00
19409,-5,68,1,57,-8,13,232,34,0,00,0,00,229,26,0,00,0,00
19441,-5,88,1,27,-8,23,169,13,0,00,0,00,223,25,0,00,0,00
19457,-5,88,0,88,-7,94,52,99,0,00,0,00,206,22,0,00,0,00
19473,-5,39,0,88,-7,94,52,99,0,00,0,00,190,90,0,00,0,00
19489,-5,39,1,76,-8,62,345,31,0,00,0,00,206,34,0,00,0,00
19505,-5,39,1,76,-8,62,345,31,0,00,0,00,220,24,0,00,0,00
19521,-5,39,1,76,-8,62,345,31,0,00,0,00,232,74,0,00,0,00
19537,-5,39,1,76,-8,62,345,31,0,00,0,00,244,00,0,00,0,00
19553,-5,10,1,86,-9,11,478,52,0,00,0,00,267,45,0,00,0,00
19569,-5,10,1,86,-9,11,478,52,0,00,0,00,288,56,0,00,0,00
19585,-4,31,1,67,-8,92,384,58,0,00,0,00,298,16,0,00,0,00
19601,-4,31,1,67,-8,92,384,58,0,00,0,00,306,80,0,00,0,00
19617,-4,21,1,96,-9,60,654,61,0,00,0,00,341,58,0,00,0,00
19633,-4,21,1,96,-9,31,556,58,0,00,0,00,363,08,0,00,0,00
19649,-4,21,1,57,-9,31,469,45,0,00,0,00,373,72,0,00,0,00
19665,-4,21,1,57,-9,51,548,18,0,00,0,00,391,17,0,00,0,00
19681,-3,43,2,16,-9,51,647,52,0,00,0,00,416,80,0,00,0,00
19697,-3,43,2,16,-10,19,879,75,0,00,0,00,463,10,0,00,0,00
19713,-3,04,2,94,-10,19,861,26,0,00,0,00,502,91,0,00,0,00
19729,-3,04,2,94,-10,49,929,36,0,00,0,00,545,56,0,00,0,00
19745,-2,65,2,94,-10,49,929,36,0,00,0,00,583,94,0,00,0,00
19761,-2,65,2,74,-9,80,766,07,0,00,0,00,602,15,0,00,0,00
19777,-1,96,2,74,-9,80,766,07,0,00,0,00,618,54,0,00,0,00
19793,-2,35,2,45,-9,21,597,53,0,00,0,00,616,44,0,00,0,00
19809,-2,35,2,45,-9,21,597,53,0,00,0,00,614,55,0,00,0,00
19825,-1,86,2,84,-11,27,1097,27,0,00,0,00,662,82,0,00,0,00
19857,-1,86,2,65,-11,27,1118,41,0,00,0,00,708,38,0,00,0,00
19873,-1,86,2,65,-9,90,789,68,0,00,0,00,716,51,0,00,0,00
19889,-1,67,1,47,-9,90,737,39,0,00,0,00,718,60,0,00,0,00
19905,-1,67,1,47,-8,92,327,55,0,00,0,00,679,49,0,00,0,00
19921,-1,67,0,69,-8,92,10,36,0,00,0,00,612,58,0,00,0,00
19937,-1,67,0,69,-8,23,6,40,0,00,0,00,551,96,0,00,0,00
19953,-1,57,-0,69,-8,23,-338,91,0,00,0,00,462,88,0,00,0,00
19969,-1,57,-0,69,-9,80,-735,24,0,00,0,00,343,06,0,00,0,00
19985,-1,57,-0,69,-9,80,-735,24,0,00,0,00,235,23,0,00,0,00
20001,-1,57,-0,49,-9,31,-531,33,0,00,0,00,158,58,0,00,0,00
20017,-1,08,-0,49,-9,31,-531,33,0,00,0,00,89,59,0,00,0,00
20033,-1,08,-0,49,-9,31,-531,33,0,00,0,00,27,50,0,00,0,00
20049,-1,08,-0,49,-9,31,-531,33,0,00,0,00,-28,39,0,00,0,00
20065,0,00,-0,49,-9,31,-531,33,0,00,0,00,-78,68,0,00,0,00
20081,0,00,-0,49,-9,31,-531,33,0,00,0,00,-123,95,0,00,0,00
20097,-0,29,-1,08,-9,31,-618,76,0,00,0,00,-173,43,0,00,0,00
20113,-0,29,-1,08,-10,49,-959,26,0,00,0,00,-252,01,0,00,0,00
20129,-0,20,-1,27,-10,49,-946,65,0,00,0,00,-321,47,0,00,0,00
20145,-0,20,-1,27,-9,51,-686,38,0,00,0,00,-357,96,0,00,0,00
20161,0,00,-1,47,-9,51,-698,88,0,00,0,00,-392,06,0,00,0,00
20177,0,00,-1,47,-9,11,-610,84,0,00,0,00,-413,93,0,00,0,00
20193,0,29,-1,47,-9,11,-610,84,0,00,0,00,-433,63,0,00,0,00
20209,0,29,-1,47,-9,11,-610,84,0,00,0,00,-451,35,0,00,0,00
20241,0,29,-2,16,-10,49,-909,36,0,00,0,00,-497,15,0,00,0,00
20257,-0,59,-2,16,-10,49,-909,36,0,00,0,00,-538,37,0,00,0,00
20273,0,59,-1,86,-10,00,-818,20,0,00,0,00,-566,35,0,00,0,00
20289,0,59,-1,86,-10,00,-818,20,0,00,0,00,-591,54,0,00,0,00
20305,0,00,-2,84,-8,23,-575,78,0,00,0,00,-589,96,0,00,0,00
20321,0,00,-2,84,-8,23,-575,78,0,00,0,00,-588,54,0,00,0,00
20337,0,00,-2,84,-8,23,-575,78,0,00,0,00,-587,27,0,00,0,00
20353,0,00,-2,84,-10,29,-863,68,0,00,0,00,-614,91,0,00,0,00
20369,0,20,-1,67,-10,29,-882,57,0,00,0,00,-641,67,0,00,0,00
20385,0,20,-1,67,-10,98,-1027,40,0,00,0,00,-680,25,0,00,0,00
20401,0,20,-0,88,-10,98,-1113,54,0,00,0,00,-723,58,0,00,0,00
20417,0,20,-0,88,-10,98,-1113,54,0,00,0,00,-762,57,0,00,0,00
20433,0,20,-0,88,-10,98,-1113,54,0,00,0,00,-797,67,0,00,0,00
20449,0,20,-0,59,-10,78,-1106,43,0,00,0,00,-828,55,0,00,0,00
20465,0,20,-0,59,-10,78,-1106,43,0,00,0,00,-856,33,0,00,0,00
20481,0,20,-0,78,-10,09,-845,28,0,00,0,00,-855,23,0,00,0,00
20497,0,20,-0,78,-10,09,-845,28,0,00,0,00,-854,23,0,00,0,00
20513,0,29,-0,88,-9,60,-681,38,0,00,0,00,-836,95,0,00,0,00
20529,0,29,-0,88,-9,60,-681,38,0,00,0,00,-821,39,0,00,0,00
20545,0,29,-0,88,-9,60,-681,38,0,00,0,00,-807,39,0,00,0,00
20561,0,29,-0,88,-9,60,-681,38,0,00,0,00,-794,79,0,00,0,00
20577,0,20,-0,98,-9,70,-719,97,0,00,0,00,-787,31,0,00,0,00
20593,0,20,-0,98,-10,58,-993,28,0,00,0,00,-807,90,0,00,0,00
20609,0,29,-0,59,-10,58,-1040,23,0,00,0,00,-831,14,0,00,0,00
20625,0,29,-0,59,-9,90,-769,08,0,00,0,00,-824,93,0,00,0,00
20657,0,29,-0,98,-9,70,-719,97,0,00,0,00,-814,43,0,00,0,00
20673,0,29,-0,98,-9,70,-719,97,0,00,0,00,-804,99,0,00,0,00
20689,0,29,-0,98,-9,90,-782,41,0,00,0,00,-802,73,0,00,0,00
20705,0,29,-0,98,-9,90,-782,41,0,00,0,00,-800,70,0,00,0,00
20721,0,29,-0,78,-9,90,-776,46,0,00,0,00,-798,27,0,00,0,00
20737,0,29,-0,78,-9,90,-776,46,0,00,0,00,-796,09,0,00,0,00
20753,0,49,-0,29,-10,19,-909,47,0,00,0,00,-807,43,0,00,0,00
20769,0,49,-0,29,-10,19,-909,47,0,00,0,00,-817,63,0,00,0,00
20785,0,29,-0,39,-10,39,-995,41,0,00,0,00,-835,41,0,00,0,00
20801,0,29,-0,39,-10,39,-995,41,0,00,0,00,-851,41,0,00,0,00
20817,0,29,-0,49,-10,49,-1022,09,0,00,0,00,-868,48,0,00,0,00
20833,0,29,-0,49,-10,49,-1022,09,0,00,0,00,-883,84,0,00,0,00
20849,0,29,-0,49,-10,49,-1022,09,0,00,0,00,-897,67,0,00,0,00
20865,0,29,-0,49,-10,19,-895,19,0,00,0,00,-897,42,0,00,0,00
20881,0,59,0,10,-10,19,-964,86,0,00,0,00,-904,16,0,00,0,00
20897,0,59,0,10,-9,70,-544,90,0,00,0,00,-868,24,0,00,0,00
20913,0,59,-0,29,-9,70,-648,37,0,00,0,00,-846,25,0,00,0,00
20929,0,59,-0,20,-9,80,-686,14,0,00,0,00,-830,24,0,00,0,00
20945,0,49,-0,20,-9,80,-686,14,0,00,0,00,-815,83,0,00,0,00
20961,0,49,-0,20,-10,29,-975,33,0,00,0,00,-831,78,0,00,0,00
20977,0,49,-0,20,-10,29,-975,33,0,00,0,00,-846,13,0,00,0,00
20993,0,29,-0,29,-10,49,-1058,32,0,00,0,00,-867,35,0,00,0,00
21009,0,29,-0,29,-10,49,-1058,32,0,00,0,00,-886,45,0,00,0,00
21025,0,29,-0,29,-10,49,-1058,32,0,00,0,00,-903,64,0,00,0,00
21057,0,59,-0,20,-9,80,-686,14,0,00,0,00,-881,89,0,00,0,00
21073,0,59,-0,20,-9,90,-743,99,0,00,0,00,-868,10,0,00,0,00
21089,0,49,-0,29,-9,90,-751,56,0,00,0,00,-856,44,0,00,0,00
21105,0,49,-0,29,-10,29,-961,92,0,00,0,00,-866,99,0,00,0,00
21121,0,29,0,00,-10,29,-1016,69,0,00,0,00,-881,96,0,00,0,00
21137,0,29,0,00,-10,09,-868,09,0,00,0,00,-880,57,0,00,0,00
21153,0,49,0,00,-10,09,-868,09,0,00,0,00,-879,32,0,00,0,00
21169,0,49,0,00,-10,29,-1016,69,0,00,0,00,-893,06,0,00,0,00
21185,0,49,0,00,-10,29,-1016,69,0,00,0,00,-905,42,0,00,0,00
21201,0,49,0,00,-10,09,-868,09,0,00,0,00,-901,69,0,00,0,00
21217,0,49,0,00,-10,09,-868,09,0,00,0,00,-898,33,0,00,0,00
21233,0,49,-0,20,-9,80,-686,14,0,00,0,00,-877,11,0,00,0,00
21249,0,49,-0,20,-9,80,-686,14,0,00,0,00,-858,01,0,00,0,00
21265,0,29,0,00,-10,09,-868,09,0,00,0,00,-859,02,0,00,0,00
21281,0,29,0,00,-10,09,-868,09,0,00,0,00,-859,93,0,00,0,00
21297,0,49,-0,29,-9,90,-751,56,0,00,0,00,-849,09,0,00,0,00
21313,0,49,-0,29,-10,19,-909,47,0,00,0,00,-855,13,0,00,0,00
21329,0,49,-0,10,-10,19,-929,71,0,00,0,00,-862,59,0,00,0,00
21345,0,49,-0,10,-10,19,-929,71,0,00,0,00,-869,30,0,00,0,00
21361,0,49,-0,10,-10,19,-929,71,0,00,0,00,-875,34,0,00,0,00
21377,0,49,-0,10,-10,19,-929,71,0,00,0,00,-880,78,0,00,0,00
21393,0,29,-0,10,-10,19,-929,71,0,00,0,00,-885,67,0,00,0,00
21409,0,29,-0,10,-10,00,-801,07,0,00,0,00,-877,21,0,00,0,00
21425,0,49,-0,10,-10,00,-801,07,0,00,0,00,-869,60,0,00,0,00
21457,0,49,0,00,-10,09,-868,09,0,00,0,00,-869,45,0,00,0,00
21473,0,49,-0,10,-10,19,-929,71,0,00,0,00,-875,47,0,00,0,00
21489,0,49,-0,10,-10,19,-929,71,0,00,0,00,-880,90,0,00,0,00
21505,0,49,-0,10,-10,00,-801,07,0,00,0,00,-872,91,0,00,0,00
21521,0,49,-0,10,-10,00,-801,07,0,00,0,00,-865,73,0,00,0,00
21537,0,49,-0,10,-10,00,-801,07,0,00,0,00,-859,26,0,00,0,00
21553,0,49,-0,10,-10,00,-801,07,0,00,0,00,-853,44,0,00,0,00
21569,0,49,-0,10,-10,00,-801,07,0,00,0,00,-848,21,0,00,0,00
21585,0,49,-0,10,-10,29,-993,58,0,00,0,00,-862,74,0,00,0,00
21601,0,49,-0,20,-10,29,-975,33,0,00,0,00,-874,00,0,00,0,00
21617,0,49,-0,20,-10,09,-858,35,0,00,0,00,-872,44,0,00,0,00
21633,0,49,-0,20,-10,09,-858,35,0,00,0,00,-871,03,0,00,0,00
21649,0,49,-0,10,-10,19,-929,71,0,00,0,00,-876,90,0,00,0,00
21665,0,49,-0,10,-10,19,-929,71,0,00,0,00,-882,18,0,00,0,00
21681,0,49,0,00,-10,09,-868,09,0,00,0,00,-880,77,0,00,0,00
21697,0,49,0,00,-10,09,-868,09,0,00,0,00,-879,50,0,00,0,00
21713,0,49,0,00,-10,09,-868,09,0,00,0,00,-878,36,0,00,0,00
21729,0,49,0,00,-10,09,-868,09,0,00,0,00,-877,33,0,00,0,00
21745,0,49,-0,10,-10,19,-929,71,0,00,0,00,-882,57,0,00,0,00
21761,0,49,-0,10,-10,19,-929,71,0,00,0,00,-887,28,0,00,0,00
21777,0,49,0,00,-10,29,-1016,69,0,00,0,00,-900,22,0,00,0,00
21793,0,49,0,00,-10,00,-797,39,0,00,0,00,-889,94,0,00,0,00
21809,0,49,-0,10,-10,00,-801,07,0,00,0,00,-881,05,0,00,0,00
21825,0,49,-0,10,-10,19,-929,71,0,00,0,00,-885,92,0,00,0,00
21857,0,49,-0,10,-10,19,-929,71,0,00,0,00,-890,30,0,00,0,00
21873,0,49,-0,10,-10,19,-929,71,0,00,0,00,-894,24,0,00,0,00
21889,0,49,-0,20,-10,09,-858,35,0,00,0,00,-890,65,0,00,0,00
21905,0,49,-0,20,-10,09,-858,35,0,00,0,00,-887,42,0,00,0,00
21921,0,49,0,10,-10,19,-964,86,0,00,0,00,-895,16,0,00,0,00
21937,0,49,0,10,-10,19,-964,86,0,00,0,00,-902,13,0,00,0,00
21953,0,49,-0,10,-10,00,-801,07,0,00,0,00,-892,03,0,00,0,00
21970,0,49,-0,10,-10,00,-801,07,0,00,0,00,-882,93,0,00,0,00
21991,0,49,0,00,-10,09,-868,09,0,00,0,00,-881,45,0,00,0,00
22007,0,49,0,00,-10,29,-1016,69,0,00,0,00,-894,97,0,00,0,00
22025,0,49,0,00,-10,29,-1016,69,0,00,0,00,-907,14,0,00,0,00
22042,0,49,0,00,-10,29,-1016,69,0,00,0,00,-918,10,0,00,0,00
22058,0,49,0,00,-10,29,-1016,69,0,00,0,00,-927,96,0,00,0,00
22074,0,49,-0,10,-10,19,-929,71,0,00,0,00,-928,13,0,00,0,00
22092,0,49,-0,10,-10,19,-929,71,0,00,0,00,-928,29,0,00,0,00
22108,0,49,-0,10,-10,19,-929,71,0,00,0,00,-928,43,0,00,0,00
22125,0,49,-0,10,-10,00,-801,07,0,00,0,00,-915,70,0,00,0,00
22141,0,49,-0,10,-10,00,-801,07,0,00,0,00,-904,23,0,00,0,00
22158,0,49,-0,10,-10,19,-929,71,0,00,0,00,-906,78,0,00,0,00
22174,0,49,-0,10,-10,19,-929,71,0,00,0,00,-909,07,0,00,0,00
22191,0,49,0,00,-10,09,-868,09,0,00,0,00,-904,97,0,00,0,00
22208,0,59,0,00,-10,09,-868,09,0,00,0,00,-901,29,0,00,0,00
22224,0,59,0,00,-10,09,-868,09,0,00,0,00,-897,97,0,00,0,00
22241,0,59,0,00,-10,09,-868,09,0,00,0,00,-894,98,0,00,0,00
22257,0,49,0,00,-10,09,-868,09,0,00,0,00,-892,29,0,00,0,00
22273,0,49,0,00,-10,19,-944,79,0,00,0,00,-897,54,0,00,0,00
22289,0,49,-0,10,-10,19,-929,71,0,00,0,00,-900,76,0,00,0,00
22305,0,49,-0,10,-10,19,-929,71,0,00,0,00,-903,65,0,00,0,00
22321,0,49,0,10,-10,19,-964,86,0,00,0,00,-909,77,0,00,0,00
22337,0,49,0,10,-10,29,-1046,73,0,00,0,00,-923,47,0,00,0,00
22353,0,49,0,00,-10,29,-1016,69,0,00,0,00,-932,79,0,00,0,00
22369,0,49,-0,10,-10,19,-929,71,0,00,0,00,-932,48,0,00,0,00
22385,0,49,-0,10,-10,19,-929,71,0,00,0,00,-932,21,0,00,0,00
22401,0,49,-0,20,-10,09,-858,35,0,00,0,00,-924,82,0,00,0,00
22417,0,49,-0,20,-10,09,-858,35,0,00,0,00,-918,17,0,00,0,00
22433,0,49,-0,10,-10,19,-929,71,0,00,0,00,-919,33,0,00,0,00
22449,0,49,-0,10,-10,19,-929,71,0,00,0,00,-920,37,0,00,0,00
22465,0,49,-0,10,-10,00,-801,07,0,00,0,00,-908,44,0,00,0,00
22481,0,49,-0,10,-10,00,-801,07,0,00,0,00,-897,70,0,00,0,00
22497,0,49,-0,10,-10,19,-929,71,0,00,0,00,-900,90,0,00,0,00
22513,0,49,-0,10,-10,19,-929,71,0,00,0,00,-903,78,0,00,0,00
22529,0,49,-0,10,-10,19,-929,71,0,00,0,00,-906,37,0,00,0,00
22545,0,49,-0,10,-10,09,-862,59,0,00,0,00,-902,00,0,00,0,00
22561,0,49,0,00,-10,09,-868,09,0,00,0,00,-898,60,0,00,0,00
22577,0,49,0,00,-10,19,-944,79,0,00,0,00,-903,22,0,00,0,00
22593,0,49,-0,10,-10,19,-929,71,0,00,0,00,-905,87,0,00,0,00
22609,0,49,0,10,-10,19,-964,86,0,00,0,00,-911,77,0,00,0,00
22625,0,49,0,10,-10,19,-964,86,0,00,0,00,-917,08,0,00,0,00
22657,0,59,-0,10,-10,19,-929,71,0,00,0,00,-918,34,0,00,0,00
22673,0,59,-0,20,-10,09,-858,35,0,00,0,00,-912,34,0,00,0,00
22689,0,59,-0,20,-10,09,-858,35,0,00,0,00,-906,94,0,00,0,00
22705,0,49,-0,10,-10,19,-929,71,0,00,0,00,-909,22,0,00,0,00
22721,0,49,-0,10,-10,19,-929,71,0,00,0,00,-911,27,0,00,0,00
22737,0,49,0,00,-10,09,-868,09,0,00,0,00,-906,95,0,00,0,00
22753,0,49,0,00,-10,19,-944,79,0,00,0,00,-910,74,0,00,0,00
22769,0,49,-0,10,-10,19,-929,71,0,00,0,00,-912,63,0,00,0,00
22785,0,49,-0,10,-10,00,-801,07,0,00,0,00,-901,48,0,00,0,00
22801,0,59,-0,10,-10,00,-801,07,0,00,0,00,-891,44,0,00,0,00
22817,0,59,-0,10,-10,00,-801,07,0,00,0,00,-882,40,0,00,0,00
22833,0,59,-0,10,-10,00,-801,07,0,00,0,00,-874,27,0,00,0,00
22849,0,59,-0,10,-10,19,-929,71,0,00,0,00,-879,81,0,00,0,00
22865,0,49,-0,10,-10,19,-929,71,0,00,0,00,-884,80,0,00,0,00
22881,0,49,-0,10,-10,00,-801,07,0,00,0,00,-876,43,0,00,0,00
22897,0,49,-0,10,-10,00,-801,07,0,00,0,00,-868,89,0,00,0,00
22913,0,59,-0,10,-10,19,-929,71,0,00,0,00,-874,97,0,00,0,00
22929,0,59,-0,10,-10,19,-929,71,0,00,0,00,-880,45,0,00,0,00
22945,0,49,-0,20,-9,80,-686,14,0,00,0,00,-861,02,0,00,0,00
22961,0,49,-0,20,-9,80,-686,14,0,00,0,00,-843,53,0,00,0,00
22977,0,49,-0,20,-9,80,-686,14,0,00,0,00,-827,79,0,00,0,00
22993,0,49,-0,20,-10,29,-975,33,0,00,0,00,-842,54,0,00,0,00
23009,0,59,0,00,-10,29,-1016,69,0,00,0,00,-859,96,0,00,0,00
23025,0,59,0,00,-10,29,-1016,69,0,00,0,00,-875,63,0,00,0,00
23057,0,59,0,00,-10,00,-797,39,0,00,0,00,-867,81,0,00,0,00
23073,0,49,-0,10,-10,00,-801,07,0,00,0,00,-861,13,0,00,0,00
23089,0,49,0,00,-10,09,-868,09,0,00,0,00,-861,83,0,00,0,00
23105,0,49,0,00,-10,09,-868,09,0,00,0,00,-862,45,0,00,0,00
23121,0,49,0,00,-10,09,-868,09,0,00,0,00,-863,02,0,00,0,00
23137,0,49,0,00,-10,09,-868,09,0,00,0,00,-863,52,0,00,0,00
23153,0,49,-0,10,-10,19,-929,71,0,00,0,00,-870,14,0,00,0,00
23169,0,49,-0,10,-10,19,-929,71,0,00,0,00,-876,10,0,00,0,00
23185,0,49,0,00,-10,09,-868,09,0,00,0,00,-875,30,0,00,0,00
23201,0,49,0,00,-10,09,-868,09,0,00,0,00,-874,58,0,00,0,00
23217,0,49,0,10,-10,19,-964,86,0,00,0,00,-883,61,0,00,0,00
23233,0,49,0,10,-10,09,-875,51,0,00,0,00,-882,80,0,00,0,00
23249,0,49,0,00,-10,09,-868,09,0,00,0,00,-881,33,0,00,0,00
23265,0,49,0,00,-10,09,-868,09,0,00,0,00,-880,00,0,00,0,00
23281,0,49,-0,20,-10,09,-858,35,0,00,0,00,-877,84,0,00,0,00
23297,0,49,-0,20,-10,09,-858,35,0,00,0,00,-875,89,0,00,0,00
23313,0,49,-0,20,-10,09,-858,35,0,00,0,00,-874,13,0,00,0,00
23329,0,49,-0,10,-10,19,-929,71,0,00,0,00,-879,69,0,00,0,00
23345,0,59,-0,10,-10,19,-929,71,0,00,0,00,-884,69,0,00,0,00
23361,0,59,-0,10,-10,19,-929,71,0,00,0,00,-889,20,0,00,0,00
23377,0,49,-0,10,-10,19,-929,71,0,00,0,00,-893,25,0,00,0,00
23393,0,49,0,00,-10,09,-868,09,0,00,0,00,-890,73,0,00,0,00
23409,0,49,0,00,-10,09,-868,09,0,00,0,00,-888,47,0,00,0,00
23425,0,49,0,10,-10,19,-964,86,0,00,0,00,-896,11,0,00,0,00
23457,0,59,-0,20,-9,80,-686,14,0,00,0,00,-875,11,0,00,0,00
23473,0,59,-0,20,-10,09,-858,35,0,00,0,00,-873,43,0,00,0,00
23489,0,49,-0,20,-10,09,-858,35,0,00,0,00,-871,93,0,00,0,00
23505,0,49,-0,20,-10,00,-803,90,0,00,0,00,-865,12,0,00,0,00
23521,0,49,-0,10,-10,00,-801,07,0,00,0,00,-858,72,0,00,0,00
23537,0,49,-0,10,-10,00,-801,07,0,00,0,00,-852,95,0,00,0,00
23553,0,49,-0,10,-10,00,-801,07,0,00,0,00,-847,76,0,00,0,00
23569,0,49,0,00,-10,09,-868,09,0,00,0,00,-849,80,0,00,0,00
23585,0,59,0,00,-10,09,-868,09,0,00,0,00,-851,63,0,00,0,00
23601,0,59,0,10,-10,39,-1118,65,0,00,0,00,-878,33,0,00,0,00
23617,0,49,0,10,-10,39,-1118,65,0,00,0,00,-902,36,0,00,0,00
23633,0,49,0,10,-10,39,-1118,65,0,00,0,00,-923,99,0,00,0,00
23649,0,49,0,10,-10,39,-1118,65,0,00,0,00,-943,45,0,00,0,00
23665,0,59,0,10,-10,00,-792,42,0,00,0,00,-928,35,0,00,0,00
23681,0,59,0,10,-10,00,-792,42,0,00,0,00,-914,76,0,00,0,00
23697,0,59,0,10,-10,00,-792,42,0,00,0,00,-902,52,0,00,0,00
23713,0,59,0,10,-10,39,-1118,65,0,00,0,00,-924,14,0,00,0,00
23729,0,49,0,10,-10,39,-1118,65,0,00,0,00,-943,59,0,00,0,00
23745,0,49,0,10,-10,39,-1118,65,0,00,0,00,-961,09,0,00,0,00
23761,0,59,0,29,-10,39,-1221,30,0,00,0,00,-987,11,0,00,0,00
23777,0,59,0,10,-10,39,-1118,65,0,00,0,00,-1000,27,0,00,0,00
23793,0,78,0,10,-10,39,-1118,65,0,00,0,00,-1012,11,0,00,0,00
23809,0,78,-0,10,-9,51,-510,03,0,00,0,00,-961,90,0,00,0,00
23825,0,59,-0,10,-9,51,-510,03,0,00,0,00,-916,71,0,00,0,00
23857,0,20,-0,10,-10,39,-1052,72,0,00,0,00,-930,31,0,00,0,00
23873,0,20,0,20,-10,29,-1087,07,0,00,0,00,-945,99,0,00,0,00
23889,0,20,0,20,-10,29,-1087,07,0,00,0,00,-960,10,0,00,0,00
23905,0,20,0,00,-9,90,-720,11,0,00,0,00,-936,10,0,00,0,00
23921,0,20,0,00,-9,90,-720,11,0,00,0,00,-914,50,0,00,0,00
23937,0,00,-0,10,-10,00,-801,07,0,00,0,00,-903,16,0,00,0,00
23953,0,00,-0,10,-9,80,-668,97,0,00,0,00,-879,74,0,00,0,00
23969,0,00,-0,20,-9,80,-686,14,0,00,0,00,-860,38,0,00,0,00
23985,0,00,-0,20,-9,80,-686,14,0,00,0,00,-842,95,0,00,0,00
24001,0,00,-0,20,-9,80,-686,14,0,00,0,00,-827,27,0,00,0,00
24017,0,00,-0,20,-10,19,-917,99,0,00,0,00,-836,34,0,00,0,00
24033,0,29,0,10,-10,19,-964,86,0,00,0,00,-849,20,0,00,0,00
24049,0,29,0,00,-10,29,-1016,69,0,00,0,00,-865,95,0,00,0,00
24065,0,20,0,00,-10,29,-1016,69,0,00,0,00,-881,02,0,00,0,00
24081,0,20,0,10,-10,19,-964,86,0,00,0,00,-889,40,0,00,0,00
24097,0,20,0,10,-10,19,-964,86,0,00,0,00,-896,95,0,00,0,00
24113,0,20,0,00,-9,90,-720,11,0,00,0,00,-879,27,0,00,0,00
24129,0,20,0,00,-9,90,-720,11,0,00,0,00,-863,35,0,00,0,00
24145,0,20,0,10,-10,19,-964,86,0,00,0,00,-873,50,0,00,0,00
24161,0,20,0,10,-10,19,-964,86,0,00,0,00,-882,64,0,00,0,00
24177,0,20,0,10,-10,39,-1118,65,0,00,0,00,-906,24,0,00,0,00
24193,0,20,0,10,-10,09,-875,51,0,00,0,00,-903,17,0,00,0,00
24209,0,29,0,00,-10,09,-868,09,0,00,0,00,-899,66,0,00,0,00
24225,0,29,0,00,-10,29,-1016,69,0,00,0,00,-911,36,0,00,0,00
24257,0,20,0,00,-10,09,-868,09,0,00,0,00,-907,03,0,00,0,00
24273,0,00,0,00,-10,09,-868,09,0,00,0,00,-903,14,0,00,0,00
24289,0,00,0,10,-10,00,-792,42,0,00,0,00,-892,07,0,00,0,00
24305,0,20,0,10,-10,00,-792,42,0,00,0,00,-882,10,0,00,0,00
24321,0,20,0,00,-10,09,-868,09,0,00,0,00,-880,70,0,00,0,00
24337,0,20,0,00,-10,09,-868,09,0,00,0,00,-879,44,0,00,0,00
24353,0,20,0,00,-10,09,-868,09,0,00,0,00,-878,30,0,00,0,00
24369,0,20,0,00,-10,09,-868,09,0,00,0,00,-877,28,0,00,0,00
24385,0,20,0,20,-10,29,-1087,07,0,00,0,00,-898,26,0,00,0,00
24401,0,20,0,20,-10,29,-1087,07,0,00,0,00,-917,14,0,00,0,00
24417,0,20,-0,10,-10,00,-801,07,0,00,0,00,-905,53,0,00,0,00
24433,0,20,-0,10,-10,09,-862,59,0,00,0,00,-901,24,0,00,0,00
24449,0,20,0,00,-10,09,-868,09,0,00,0,00,-897,92,0,00,0,00
24465,0,20,0,00,-10,29,-1016,69,0,00,0,00,-909,80,0,00,0,00
24481,0,20,0,20,-10,29,-1087,07,0,00,0,00,-927,53,0,00,0,00
24497,0,20,0,20,-10,29,-1087,07,0,00,0,00,-943,48,0,00,0,00
24513,0,20,0,20,-10,29,-1087,07,0,00,0,00,-957,84,0,00,0,00
24529,0,20,0,20,-10,29,-1087,07,0,00,0,00,-970,76,0,00,0,00
24545,0,20,0,20,-10,29,-1087,07,0,00,0,00,-982,39,0,00,0,00
24561,0,20,0,00,-10,09,-868,09,0,00,0,00,-970,96,0,00,0,00
24577,0,20,0,00,-10,09,-868,09,0,00,0,00,-960,67,0,00,0,00
24593,0,20,0,10,-10,19,-964,86,0,00,0,00,-961,09,0,00,0,00
24609,0,20,0,10,-10,19,-964,86,0,00,0,00,-961,47,0,00,0,00
24625,0,20,0,10,-10,19,-964,86,0,00,0,00,-961,81,0,00,0,00
24657,0,20,0,00,-10,09,-868,09,0,00,0,00,-952,44,0,00,0,00
24673,0,20,0,00,-10,00,-797,39,0,00,0,00,-936,93,0,00,0,00
24689,0,20,-0,10,-10,00,-801,07,0,00,0,00,-923,35,0,00,0,00
24705,0,20,-0,10,-10,09,-862,59,0,00,0,00,-917,27,0,00,0,00
24721,0,29,0,20,-10,09,-886,07,0,00,0,00,-914,15,0,00,0,00
24737,0,29,0,20,-10,19,-992,79,0,00,0,00,-922,01,0,00,0,00
24753,0,20,0,10,-10,19,-964,86,0,00,0,00,-926,30,0,00,0,00
24769,0,20,0,10,-10,19,-964,86,0,00,0,00,-930,15,0,00,0,00
24785,0,20,0,10,-10,19,-964,86,0,00,0,00,-933,63,0,00,0,00
24801,0,20,0,10,-10,00,-792,42,0,00,0,00,-919,50,0,00,0,00
24817,0,29,0,10,-10,00,-792,42,0,00,0,00,-906,80,0,00,0,00
24833,0,20,0,10,-10,00,-792,42,0,00,0,00,-895,36,0,00,0,00
24849,0,20,0,10,-10,00,-792,42,0,00,0,00,-885,06,0,00,0,00
24865,0,20,0,10,-10,19,-964,86,0,00,0,00,-893,04,0,00,0,00
24881,0,20,0,10,-10,19,-964,86,0,00,0,00,-900,22,0,00,0,00
24897,0,20,0,00,-10,09,-868,09,0,00,0,00,-897,01,0,00,0,00
24913,0,20,0,00,-10,00,-797,39,0,00,0,00,-887,05,0,00,0,00
24929,0,20,0,10,-10,00,-792,42,0,00,0,00,-877,59,0,00,0,00
24945,0,20,0,10,-10,09,-875,51,0,00,0,00,-877,38,0,00,0,00
24961,0,20,0,00,-10,09,-868,09,0,00,0,00,-876,45,0,00,0,00
24977,0,20,0,00,-10,09,-868,09,0,00,0,00,-875,61,0,00,0,00
24993,0,20,0,00,-10,09,-868,09,0,00,0,00,-874,86,0,00,0,00
25009,0,20,0,20,-10,29,-1087,07,0,00,0,00,-896,08,0,00,0,00
25025,0,29,0,20,-10,29,-1087,07,0,00,0,00,-915,18,0,00,0,00
25041,0,29,0,20,-10,29,-1087,07,0,00,0,00,-932,37,0,00,0,00
25073,0,29,0,10,-10,00,-792,42,0,00,0,00,-918,37,0,00,0,00
25089,0,29,0,10,-10,00,-792,42,0,00,0,00,-905,78,0,00,0,00
25105,0,20,0,00,-10,09,-868,09,0,00,0,00,-902,01,0,00,0,00
25121,0,20,0,00,-10,09,-868,09,0,00,0,00,-898,62,0,00,0,00
25137,0,20,0,20,-10,29,-1087,07,0,00,0,00,-917,46,0,00,0,00
25153,0,20,0,20,-10,19,-992,79,0,00,0,00,-924,99,0,00,0,00
25169,0,29,0,29,-10,19,-1029,05,0,00,0,00,-935,40,0,00,0,00
25185,0,29,0,29,-10,09,-900,28,0,00,0,00,-931,89,0,00,0,00
25201,0,20,0,00,-10,09,-868,09,0,00,0,00,-925,51,0,00,0,00
25217,0,20,0,00,-10,09,-868,09,0,00,0,00,-919,77,0,00,0,00
25233,0,20,0,20,-10,09,-886,07,0,00,0,00,-916,40,0,00,0,00
25249,0,20,0,10,-10,19,-964,86,0,00,0,00,-921,24,0,00,0,00
25265,0,20,0,10,-10,19,-964,86,0,00,0,00,-925,60,0,00,0,00
25281,0,20,0,20,-10,09,-886,07,0,00,0,00,-921,65,0,00,0,00
25297,0,29,0,20,-10,09,-886,07,0,00,0,00,-918,09,0,00,0,00
25313,0,29,0,10,-10,19,-964,86,0,00,0,00,-922,77,0,00,0,00
25329,0,29,0,10,-10,19,-964,86,0,00,0,00,-926,98,0,00,0,00
25345,0,29,0,00,-10,09,-868,09,0,00,0,00,-921,09,0,00,0,00
25361,0,29,0,00,-10,09,-868,09,0,00,0,00,-915,79,0,00,0,00
25377,0,20,0,10,-10,19,-964,86,0,00,0,00,-920,70,0,00,0,00
25393,0,20,0,10,-10,09,-875,51,0,00,0,00,-916,18,0,00,0,00
25409,0,29,0,00,-10,09,-868,09,0,00,0,00,-911,37,0,00,0,00
25425,0,29,0,00,-10,09,-868,09,0,00,0,00,-907,04,0,00,0,00
25457,0,20,-0,10,-10,00,-801,07,0,00,0,00,-896,44,0,00,0,00
25473,0,20,-0,10,-10,00,-801,07,0,00,0,00,-886,91,0,00,0,00
25489,0,20,0,20,-10,29,-1087,07,0,00,0,00,-906,92,0,00,0,00
25505,0,29,0,20,-10,29,-1087,07,0,00,0,00,-924,94,0,00,0,00
25521,0,29,0,20,-10,29,-1087,07,0,00,0,00,-941,15,0,00,0,00
25537,0,29,0,20,-10,29,-1087,07,0,00,0,00,-955,74,0,00,0,00
25553,0,29,0,20,-10,29,-1087,07,0,00,0,00,-968,87,0,00,0,00
25569,0,29,0,20,-10,29,-1087,07,0,00,0,00,-980,69,0,00,0,00
25585,0,20,0,00,-10,09,-868,09,0,00,0,00,-969,43,0,00,0,00
25601,0,20,0,00,-10,09,-868,09,0,00,0,00,-959,30,0,00,0,00
25617,0,20,0,10,-10,00,-792,42,0,00,0,00,-942,61,0,00,0,00
25633,0,20,0,10,-10,19,-964,86,0,00,0,00,-944,83,0,00,0,00
25649,0,20,0,10,-10,19,-964,86,0,00,0,00,-946,84,0,00,0,00
25665,0,20,0,10,-10,19,-964,86,0,00,0,00,-948,64,0,00,0,00
25681,0,29,0,10,-10,19,-964,86,0,00,0,00,-950,26,0,00,0,00
25697,0,29,0,10,-10,09,-875,51,0,00,0,00,-942,79,0,00,0,00
25713,0,20,0,00,-10,09,-868,09,0,00,0,00,-935,32,0,00,0,00
25729,0,20,0,00,-10,09,-868,09,0,00,0,00,-928,59,0,00,0,00
25745,0,20,0,00,-10,09,-868,09,0,00,0,00,-922,54,0,00,0,00
25761,0,20,0,00,-10,09,-868,09,0,00,0,00,-917,10,0,00,0,00
25777,0,20,0,00,-10,09,-868,09,0,00,0,00,-912,20,0,00,0,00
25793,0,29,0,10,-10,19,-964,86,0,00,0,00,-917,46,0,00,0,00
25809,0,29,0,10,-10,19,-964,86,0,00,0,00,-922,20,0,00,0,00
25825,0,29,0,10,-10,19,-964,86,0,00,0,00,-926,47,0,00,0,00
25841,0,29,0,10,-10,19,-964,86,0,00,0,00,-930,31,0,00,0,00
25873,0,20,0,00,-10,19,-944,79,0,00,0,00,-931,76,0,00,0,00
25889,0,20,0,10,-10,19,-964,86,0,00,0,00,-935,07,0,00,0,00
25905,0,20,0,10,-10,19,-964,86,0,00,0,00,-938,05,0,00,0,00
25921,0,29,0,10,-10,19,-964,86,0,00,0,00,-940,73,0,00,0,00
25937,0,29,0,10,-10,19,-964,86,0,00,0,00,-943,14,0,00,0,00
25953,0,29,0,10,-10,19,-964,86,0,00,0,00,-945,31,0,00,0,00
25969,0,29,-0,10,-10,19,-929,71,0,00,0,00,-943,75,0,00,0,00
25985,0,29,-0,10,-10,19,-929,71,0,00,0,00,-942,35,0,00,0,00
26001,0,29,-0,29,-10,68,-1136,79,0,00,0,00,-961,79,0,00,0,00
26017,0,29,-0,29,-10,68,-1136,79,0,00,0,00,-979,29,0,00,0,00
26033,0,29,-0,29,-10,68,-1136,79,0,00,0,00,-995,04,0,00,0,00
26049,0,29,-0,29,-10,68,-1136,79,0,00,0,00,-1009,22,0,00,0,00
26065,0,78,-0,20,-10,29,-975,33,0,00,0,00,-1005,83,0,00,0,00
26081,0,78,-0,20,-10,29,-975,33,0,00,0,00,-1002,78,0,00,0,00
26097,0,49,-0,20,-11,27,-1329,15,0,00,0,00,-1035,42,0,00,0,00
26113,0,49,-0,20,-9,31,-459,55,0,00,0,00,-977,83,0,00,0,00
26129,-0,78,-1,08,-9,31,-618,76,0,00,0,00,-941,92,0,00,0,00
26145,-0,78,-1,08,-10,00,-814,86,0,00,0,00,-929,22,0,00,0,00
26161,-0,88,-0,88,-10,00,-813,47,0,00,0,00,-917,64,0,00,0,00
26177,-0,88,-0,88,-9,41,-623,69,0,00,0,00,-888,25,0,00,0,00
26193,-1,27,-0,39,-9,41,-544,84,0,00,0,00,-853,91,0,00,0,00
26210,-1,27,-1,18,-10,88,-1050,89,0,00,0,00,-873,60,0,00,0,00
26226,0,20,-1,18,-10,88,-1050,89,0,00,0,00,-891,33,0,00,0,00
26242,0,20,-0,10,-12,15,-1468,20,0,00,0,00,-949,02,0,00,0,00
26258,1,57,-0,10,-12,15,-1468,20,0,00,0,00,-1000,94,0,00,0,00
26290,-1,57,-0,69,-11,66,-1285,30,0,00,0,00,-1029,37,0,00,0,00
26306,0,00,-1,67,-10,00,-817,59,0,00,0,00,-1008,20,0,00,0,00
26322,0,00,-1,67,-10,00,-817,59,0,00,0,00,-989,14,0,00,0,00
26338,-1,37,-1,18,-9,41,-654,00,0,00,0,00,-955,62,0,00,0,00
26354,-1,37,-1,18,-8,92,-540,11,0,00,0,00,-914,07,0,00,0,00
26370,-1,96,-0,39,-8,92,-398,82,0,00,0,00,-862,55,0,00,0,00
26386,-1,96,-0,39,-9,41,-544,84,0,00,0,00,-830,78,0,00,0,00
26402,5,39,-1,76,-9,41,-693,05,0,00,0,00,-817,00,0,00,0,00
26418,5,39,-3,33,-8,82,-670,48,0,00,0,00,-802,35,0,00,0,00
26434,5,59,-3,33,-8,82,-670,48,0,00,0,00,-789,17,0,00,0,00
26450,5,59,-2,74,-10,58,-908,89,0,00,0,00,-801,14,0,00,0,00
26466,3,23,-2,74,-10,58,-908,89,0,00,0,00,-811,91,0,00,0,00
26482,3,23,-3,53,-11,66,-1019,72,0,00,0,00,-832,69,0,00,0,00
26498,-1,96,-3,53,-11,66,-1019,72,0,00,0,00,-851,40,0,00,0,00
26514,2,16,-2,94,-11,17,-985,76,0,00,0,00,-864,83,0,00,0,00
26530,2,16,-2,94,-11,17,-985,76,0,00,0,00,-876,93,0,00,0,00
26546,2,16,-2,94,-11,17,-985,76,0,00,0,00,-887,81,0,00,0,00
26562,2,16,-2,94,-11,17,-985,76,0,00,0,00,-897,60,0,00,0,00
26578,1,96,-2,25,-9,31,-697,51,0,00,0,00,-877,59,0,00,0,00
26595,1,96,-2,25,-10,49,-906,82,0,00,0,00,-880,52,0,00,0,00
26624,1,08,-2,45,-10,68,-932,75,0,00,0,00,-885,74,0,00,0,00
26641,-0,29,-3,33,-10,68,-909,64,0,00,0,00,-888,13,0,00,0,00
26657,-0,29,-3,33,-9,90,-807,81,0,00,0,00,-880,10,0,00,0,00
26674,1,08,-3,63,-9,90,-809,06,0,00,0,00,-873,00,0,00,0,00
26690,1,08,-3,82,-11,27,-966,73,0,00,0,00,-882,37,0,00,0,00
26706,0,20,-3,82,-11,27,-966,73,0,00,0,00,-890,81,0,00,0,00
26722,0,20,-4,21,-10,98,-926,17,0,00,0,00,-894,34,0,00,0,00
26738,-3,43,-4,21,-10,98,-926,17,0,00,0,00,-897,52,0,00,0,00
26754,-2,65,-5,10,-9,51,-777,88,0,00,0,00,-885,56,0,00,0,00
26770,-2,65,-5,10,-9,51,-777,88,0,00,0,00,-874,79,0,00,0,00
26786,-3,72,-6,08,-11,56,-942,44,0,00,0,00,-881,56,0,00,0,00
26802,-3,72,-6,08,-11,56,-942,44,0,00,0,00,-887,65,0,00,0,00
26818,-4,02,-6,66,-10,00,-823,11,0,00,0,00,-881,19,0,00,0,00
26834,-4,02,-6,66,-5,59,-539,03,0,00,0,00,-846,98,0,00,0,00
26850,-5,59,-5,78,-5,59,-508,38,0,00,0,00,-813,12,0,00,0,00
26866,-5,59,-5,78,-5,29,-492,16,0,00,0,00,-781,02,0,00,0,00
26882,-0,29,-4,80,-5,29,-449,94,0,00,0,00,-747,91,0,00,0,00
26898,-0,29,-4,21,-6,76,-514,82,0,00,0,00,-724,60,0,00,0,00
26914,2,94,-4,21,-6,76,-514,82,0,00,0,00,-703,62,0,00,0,00
26941,3,43,-3,04,-7,64,-524,13,0,00,0,00,-685,68,0,00,0,00
26957,3,43,-3,04,-3,33,-265,50,0,00,0,00,-643,66,0,00,0,00
26974,3,04,-0,88,-3,33,-119,25,0,00,0,00,-591,22,0,00,0,00
26991,3,04,-0,59,-4,31,-113,68,0,00,0,00,-543,46,0,00,0,00
27008,0,20,-0,59,-4,31,-113,68,0,00,0,00,-500,49,0,00,0,00
27024,0,20,-0,59,-4,31,-113,68,0,00,0,00,-461,80,0,00,0,00
27041,0,20,-0,59,-4,31,-113,68,0,00,0,00,-426,99,0,00,0,00
27057,3,04,0,49,-9,02,-91,17,0,00,0,00,-393,41,0,00,0,00
27074,3,04,0,49,-11,66,-1593,99,0,00,0,00,-513,47,0,00,0,00
27090,2,74,1,76,-11,66,1340,21,0,00,0,00,-328,10,0,00,0,00
27106,2,74,1,76,-11,96,1380,02,0,00,0,00,-157,29,0,00,0,00
27122,-1,08,0,88,-11,96,1593,69,0,00,0,00,17,81,0,00,0,00
27138,-1,08,2,25,-10,39,941,41,0,00,0,00,110,17,0,00,0,00
27157,6,96,2,25,-10,39,941,41,0,00,0,00,193,29,0,00,0,00
27174,-1,08,0,39,-13,13,-1604,27,0,00,0,00,13,54,0,00,0,00
27191,-1,08,0,39,-13,13,-1604,27,0,00,0,00,-148,24,0,00,0,00
27207,0,88,0,39,-13,13,-1604,27,0,00,0,00,-293,85,0,00,0,00
27224,0,88,0,39,-9,02,-140,39,0,00,0,00,-278,50,0,00,0,00
27240,4,61,1,47,-9,02,351,25,0,00,0,00,-215,53,0,00,0,00
27257,4,61,0,69,-8,04,5,79,0,00,0,00,-193,39,0,00,0,00
27274,2,45,0,69,-8,04,5,79,0,00,0,00,-173,48,0,00,0,00
27290,2,45,0,00,-9,11,-328,50,0,00,0,00,-188,98,0,00,0,00
27307,-0,20,0,00,-9,11,-328,50,0,00,0,00,-202,93,0,00,0,00
27324,1,86,0,39,-12,15,-1582,65,0,00,0,00,-340,90,0,00,0,00
27340,1,86,0,39,-12,15,-1582,65,0,00,0,00,-465,08,0,00,0,00
27357,-0,59,0,29,-11,86,-1543,96,0,00,0,00,-572,96,0,00,0,00
27374,-0,59,0,29,-10,49,-1286,42,0,00,0,00,-644,31,0,00,0,00
27390,-0,88,0,20,-10,49,-1230,55,0,00,0,00,-702,93,0,00,0,00
27407,-0,88,0,49,-11,47,-1586,46,0,00,0,00,-791,29,0,00,0,00
27424,1,27,0,49,-11,47,-1586,46,0,00,0,00,-870,80,0,00,0,00
27441,1,27,0,49,-10,19,-1200,60,0,00,0,00,-903,78,0,00,0,00
27457,0,88,0,49,-10,19,-1200,60,0,00,0,00,-933,46,0,00,0,00
27473,-0,29,2,74,-18,23,1521,19,0,00,0,00,-688,00,0,00,0,00
27489,-0,29,2,74,-18,23,1521,19,0,00,0,00,-467,08,0,00,0,00
27505,0,78,0,20,-10,49,-1230,55,0,00,0,00,-543,43,0,00,0,00
27521,0,78,0,20,-10,49,-1230,55,0,00,0,00,-612,14,0,00,0,00
27537,0,78,0,20,-10,49,-1230,55,0,00,0,00,-673,98,0,00,0,00
27553,0,78,0,20,-9,21,-270,97,0,00,0,00,-633,68,0,00,0,00
27569,0,29,1,27,-9,21,331,06,0,00,0,00,-537,21,0,00,0,00
27585,0,29,1,27,-8,72,225,52,0,00,0,00,-460,93,0,00,0,00
27601,0,49,0,49,-8,72,-70,67,0,00,0,00,-421,91,0,00,0,00
27617,0,49,0,49,-4,31,-16,34,0,00,0,00,-381,35,0,00,0,00
27633,1,37,-2,25,-4,31,-247,74,0,00,0,00,-367,99,0,00,0,00
27649,1,37,0,69,-9,70,34,37,0,00,0,00,-327,75,0,00,0,00
27665,0,00,0,69,-9,70,34,37,0,00,0,00,-291,54,0,00,0,00
27681,0,00,1,67,-10,09,853,99,0,00,0,00,-176,99,0,00,0,00
27697,0,88,1,67,-10,09,853,99,0,00,0,00,-73,89,0,00,0,00
27713,-0,88,-0,98,-7,64,-316,70,0,00,0,00,-98,17,0,00,0,00
27729,-0,88,-0,98,-7,64,-316,70,0,00,0,00,-120,02,0,00,0,00
27745,-0,20,1,08,-10,00,779,87,0,00,0,00,-30,04,0,00,0,00
27761,-0,20,1,08,-10,00,779,87,0,00,0,00,50,96,0,00,0,00
27777,0,20,1,08,-10,39,1198,81,0,00,0,00,165,74,0,00,0,00
27793,0,20,1,08,-9,70,466,07,0,00,0,00,195,77,0,00,0,00
27809,-0,59,0,69,-9,70,34,37,0,00,0,00,179,63,0,00,0,00
27825,-0,59,0,69,-10,19,1576,79,0,00,0,00,319,35,0,00,0,00
27841,1,08,-0,10,-10,19,-929,71,0,00,0,00,194,44,0,00,0,00
27873,0,29,0,69,-10,09,1448,02,0,00,0,00,319,80,0,00,0,00
27889,0,29,0,59,-10,00,-598,39,0,00,0,00,227,98,0,00,0,00
27905,0,29,0,59,-10,00,-598,39,0,00,0,00,145,34,0,00,0,00
27921,0,29,0,69,-10,09,1448,02,0,00,0,00,275,61,0,00,0,00
27937,0,29,0,69,-10,09,1448,02,0,00,0,00,392,85,0,00,0,00
27953,0,20,0,69,-10,09,1448,02,0,00,0,00,498,37,0,00,0,00
27969,0,20,0,69,-10,09,1448,02,0,00,0,00,593,33,0,00,0,00
27985,0,29,0,69,-10,09,1448,02,0,00,0,00,678,80,0,00,0,00
28001,0,29,0,69,-10,09,1448,02,0,00,0,00,755,72,0,00,0,00
28017,0,29,0,69,-10,09,1448,02,0,00,0,00,824,95,0,00,0,00
28033,0,29,0,69,-10,09,1448,02,0,00,0,00,887,26,0,00,0,00
28049,0,20,0,69,-10,09,1448,02,0,00,0,00,943,33,0,00,0,00
28065,0,20,0,69,-10,09,1448,02,0,00,0,00,993,80,0,00,0,00
28081,0,29,0,69,-10,09,1448,02,0,00,0,00,1039,22,0,00,0,00
28097,0,29,0,69,-10,09,1448,02,0,00,0,00,1080,10,0,00,0,00
28113,0,29,0,69,-10,09,1448,02,0,00,0,00,1116,89,0,00,0,00
28129,0,29,0,59,-10,00,-598,39,0,00,0,00,945,36,0,00,0,00
28145,0,29,0,59,-10,00,-598,39,0,00,0,00,790,99,0,00,0,00
28161,0,29,0,59,-10,00,-598,39,0,00,0,00,652,05,0,00,0,00
28177,0,29,0,59,-10,00,-598,39,0,00,0,00,527,01,0,00,0,00
28193,0,29,0,69,-10,09,1448,02,0,00,0,00,619,11,0,00,0,00
28209,0,29,0,69,-10,09,1448,02,0,00,0,00,702,00,0,00,0,00
28225,0,20,0,78,-10,00,662,21,0,00,0,00,698,02,0,00,0,00
28241,0,20,0,78,-10,00,662,21,0,00,0,00,694,44,0,00,0,00
28273,0,20,0,78,-10,09,1061,84,0,00,0,00,731,18,0,00,0,00
28289,0,20,0,69,-10,09,1448,02,0,00,0,00,802,86,0,00,0,00
28305,0,20,0,69,-9,90,84,30,0,00,0,00,731,01,0,00,0,00
28321,0,29,0,49,-9,90,-482,74,0,00,0,00,609,63,0,00,0,00
28337,0,29,0,49,-10,00,-720,79,0,00,0,00,476,59,0,00,0,00
28353,0,20,0,78,-10,00,662,21,0,00,0,00,495,15,0,00,0,00
28369,0,20,0,59,-10,00,-598,39,0,00,0,00,385,80,0,00,0,00
28385,0,29,0,59,-10,00,-598,39,0,00,0,00,287,38,0,00,0,00
28401,0,29,0,69,-10,09,1448,02,0,00,0,00,403,44,0,00,0,00
28417,0,29,0,69,-10,09,1448,02,0,00,0,00,507,90,0,00,0,00
28433,0,20,0,69,-10,09,1448,02,0,00,0,00,601,91,0,00,0,00
28450,0,20,0,69,-10,09,1448,02,0,00,0,00,686,52,0,00,0,00
28474,0,20,0,69,-10,09,1448,02,0,00,0,00,762,67,0,00,0,00
28490,0,20,0,78,-10,00,662,21,0,00,0,00,752,62,0,00,0,00
28507,0,29,0,78,-10,00,662,21,0,00,0,00,743,58,0,00,0,00
28523,0,29,0,78,-10,00,662,21,0,00,0,00,735,45,0,00,0,00
28540,0,29,0,78,-10,00,662,21,0,00,0,00,728,12,0,00,0,00
28557,0,29,0,69,-10,09,1448,02,0,00,0,00,800,11,0,00,0,00
28573,0,29,0,69,-10,00,288,34,0,00,0,00,748,94,0,00,0,00
28590,0,29,0,59,-10,00,-598,39,0,00,0,00,614,20,0,00,0,00
28607,0,29,0,59,-10,09,-1143,99,0,00,0,00,438,38,0,00,0,00
28623,0,29,0,69,-10,09,1448,02,0,00,0,00,539,35,0,00,0,00
28640,0,29,0,78,-10,00,662,21,0,00,0,00,551,63,0,00,0,00
28656,0,29,0,78,-10,00,662,21,0,00,0,00,562,69,0,00,0,00
28673,0,29,0,69,-10,09,1448,02,0,00,0,00,651,22,0,00,0,00
28689,0,29,0,69,-10,09,1448,02,0,00,0,00,730,90,0,00,0,00
28705,0,29,0,69,-10,09,1448,02,0,00,0,00,802,61,0,00,0,00
28721,0,29,0,69,-10,09,1448,02,0,00,0,00,867,15,0,00,0,00
28737,0,29,0,69,-10,09,1448,02,0,00,0,00,925,24,0,00,0,00
28754,0,29,0,69,-10,09,1448,02,0,00,0,00,977,52,0,00,0,00
28770,0,20,0,69,-10,09,1448,02,0,00,0,00,1024,57,0,00,0,00
28786,0,20,0,69,-10,00,288,34,0,00,0,00,950,94,0,00,0,00
28802,0,20,0,78,-10,00,662,21,0,00,0,00,922,07,0,00,0,00
28818,0,20,0,78,-10,09,1061,84,0,00,0,00,936,05,0,00,0,00
28834,0,29,0,69,-10,09,1448,02,0,00,0,00,987,25,0,00,0,00
28850,0,29,0,69,-10,09,1448,02,0,00,0,00,1033,32,0,00,0,00
28866,0,29,0,69,-10,09,1448,02,0,00,0,00,1074,79,0,00,0,00
28882,0,29,0,69,-10,09,1448,02,0,00,0,00,1112,11,0,00,0,00
28898,0,20,0,69,-10,09,1448,02,0,00,0,00,1145,70,0,00,0,00
28914,0,29,0,69,-10,09,1448,02,0,00,0,00,1175,94,0,00,0,00
28930,0,29,0,69,-10,09,1448,02,0,00,0,00,1203,14,0,00,0,00
28946,0,29,0,78,-10,00,662,21,0,00,0,00,1149,05,0,00,0,00
28962,0,29,0,78,-10,00,662,21,0,00,0,00,1100,37,0,00,0,00
28978,0,20,0,59,-10,00,-598,39,0,00,0,00,930,49,0,00,0,00
28994,0,20,0,59,-10,00,-598,39,0,00,0,00,777,60,0,00,0,00
29010,0,20,0,59,-10,00,-598,39,0,00,0,00,640,00,0,00,0,00
29026,0,20,0,59,-9,90,-273,72,0,00,0,00,548,63,0,00,0,00
29042,0,20,0,69,-9,90,84,30,0,00,0,00,502,20,0,00,0,00
29058,0,20,0,59,-10,00,-598,39,0,00,0,00,392,14,0,00,0,00
29090,0,29,0,69,-10,09,1448,02,0,00,0,00,497,73,0,00,0,00
29106,0,29,0,69,-10,09,1448,02,0,00,0,00,592,75,0,00,0,00
29122,0,29,0,59,-10,00,-598,39,0,00,0,00,473,64,0,00,0,00
29138,0,29,0,59,-10,00,-598,39,0,00,0,00,366,44,0,00,0,00
29154,0,29,0,59,-10,00,-598,39,0,00,0,00,269,95,0,00,0,00
29170,0,29,0,59,-10,00,-598,39,0,00,0,00,183,12,0,00,0,00
29186,0,20,0,78,-10,00,662,21,0,00,0,00,231,03,0,00,0,00
29202,0,20,0,78,-10,00,662,21,0,00,0,00,274,15,0,00,0,00
29218,0,29,0,69,-9,90,84,30,0,00,0,00,255,16,0,00,0,00
29234,0,29,0,69,-10,09,1448,02,0,00,0,00,374,45,0,00,0,00
29250,0,29,0,69,-10,09,1448,02,0,00,0,00,481,80,0,00,0,00
29266,0,29,0,69,-10,09,1448,02,0,00,0,00,578,43,0,00,0,00
29282,0,29,0,69,-10,09,1448,02,0,00,0,00,665,38,0,00,0,00
29298,0,29,0,78,-10,00,662,21,0,00,0,00,665,07,0,00,0,00
29314,0,29,0,78,-10,00,662,21,0,00,0,00,664,78,0,00,0,00
29330,0,29,0,59,-10,00,-598,39,0,00,0,00,538,46,0,00,0,00
29346,0,29,0,59,-10,00,-598,39,0,00,0,00,424,78,0,00,0,00
29362,0,29,0,69,-10,09,1448,02,0,00,0,00,527,10,0,00,0,00
29378,0,29,0,69,-10,09,1448,02,0,00,0,00,619,19,0,00,0,00
29394,0,20,0,69,-10,09,1448,02,0,00,0,00,702,08,0,00,0,00
29410,0,20,0,69,-10,09,1448,02,0,00,0,00,776,67,0,00,0,00
29426,0,29,0,69,-10,09,1448,02,0,00,0,00,843,80,0,00,0,00
29442,0,29,0,69,-10,09,1448,02,0,00,0,00,904,23,0,00,0,00
29458,0,29,0,69,-10,09,1448,02,0,00,0,00,958,60,0,00,0,00
29490,0,29,0,78,-10,00,662,21,0,00,0,00,928,96,0,00,0,00
29506,0,29,0,78,-10,29,1433,07,0,00,0,00,979,38,0,00,0,00
29522,0,29,0,78,-10,29,1433,07,0,00,0,00,1024,75,0,00,0,00
29538,0,29,0,78,-10,29,1433,07,0,00,0,00,1065,58,0,00,0,00
29554,0,29,0,78,-10,29,1433,07,0,00,0,00,1102,33,0,00,0,00
29570,0,29,0,69,-10,09,1448,02,0,00,0,00,1136,90,0,00,0,00
29587,0,29,0,69,-10,09,1448,02,0,00,0,00,1168,01,0,00,0,00
29608,0,29,0,69,-10,09,1448,02,0,00,0,00,1196,01,0,00,0,00
29624,0,29,0,69,-10,29,1605,96,0,00,0,00,1237,00,0,00,0,00
29641,0,20,0,78,-10,29,1433,07,0,00,0,00,1256,61,0,00,0,00
29658,0,20,0,78,-10,29,1433,07,0,00,0,00,1274,26,0,00,0,00
29674,0,29,0,78,-10,29,1433,07,0,00,0,00,1290,14,0,00,0,00
29691,0,29,0,69,-9,90,84,30,0,00,0,00,1169,56,0,00,0,00
29707,0,29,0,69,-9,90,84,30,0,00,0,00,1061,03,0,00,0,00
29724,0,29,0,69,-10,09,1448,02,0,00,0,00,1099,73,0,00,0,00
29741,0,29,0,69,-10,09,1448,02,0,00,0,00,1134,56,0,00,0,00
29757,0,29,0,69,-9,90,84,30,0,00,0,00,1029,53,0,00,0,00
29775,0,29,0,69,-10,09,1448,02,0,00,0,00,1071,38,0,00,0,00
29791,0,29,0,69,-10,09,1448,02,0,00,0,00,1109,04,0,00,0,00
29807,0,29,0,69,-10,09,1448,02,0,00,0,00,1142,94,0,00,0,00
29824,0,29,0,69,-10,09,1448,02,0,00,0,00,1173,45,0,00,0,00
29841,0,29,0,69,-10,09,1448,02,0,00,0,00,1200,90,0,00,0,00
29857,0,29,0,69,-10,09,1448,02,0,00,0,00,1225,62,0,00,0,00
29874,0,29,0,69,-10,09,1448,02,0,00,0,00,1247,86,0,00,0,00
29890,0,29,0,69,-10,09,1448,02,0,00,0,00,1267,87,0,00,0,00
29906,0,20,0,69,-10,09,1448,02,0,00,0,00,1285,89,0,00,0,00
29922,0,20,0,69,-10,09,1448,02,0,00,0,00,1302,10,0,00,0,00
29938,0,20,0,69,-10,09,1448,02,0,00,0,00,1316,69,0,00,0,00
29954,0,20,0,69,-10,00,288,34,0,00,0,00,1213,86,0,00,0,00
29970,0,29,0,59,-10,00,-598,39,0,00,0,00,1032,63,0,00,0,00
29986,0,29,0,59,-10,09,-1143,99,0,00,0,00,814,97,0,00,0,00
30002,0,20,0,69,-10,09,1448,02,0,00,0,00,878,27,0,00,0,00
30018,0,20,0,69,-10,09,1448,02,0,00,0,00,935,25,0,00,0,00
30034,0,20,0,69,-10,09,1448,02,0,00,0,00,986,52,0,00,0,00
30050,0,20,0,59,-10,00,-598,39,0,00,0,00,828,03,0,00,0,00
30066,0,20,0,59,-10,00,-598,39,0,00,0,00,685,39,0,00,0,00
30082,0,20,0,59,-10,00,-598,39,0,00,0,00,557,01,0,00,0,00
30098,0,29,0,59,-10,00,-598,39,0,00,0,00,441,47,0,00,0,00
30114,0,29,0,59,-10,00,-598,39,0,00,0,00,337,48,0,00,0,00
30130,0,29,0,59,-10,00,-598,39,0,00,0,00,243,90,0,00,0,00
30146,0,20,0,78,-10,00,662,21,0,00,0,00,285,73,0,00,0,00
30162,0,20,0,78,-10,00,662,21,0,00,0,00,323,38,0,00,0,00
30178,0,20,0,59,-10,00,-598,39,0,00,0,00,231,20,0,00,0,00
30194,0,20,0,59,-10,09,-1143,99,0,00,0,00,93,68,0,00,0,00
30211,0,29,0,69,-10,09,1448,02,0,00,0,00,229,11,0,00,0,00
30242,0,29,0,69,-10,09,1448,02,0,00,0,00,351,00,0,00,0,00
30258,0,29,0,78,-10,58,1544,65,0,00,0,00,470,37,0,00,0,00
30274,0,29,0,78,-10,58,1544,65,0,00,0,00,577,80,0,00,0,00
30298,0,29,0,78,-10,58,1544,65,0,00,0,00,674,48,0,00,0,00
30328,0,20,0,69,-10,09,1448,02,0,00,0,00,751,83,0,00,0,00
30346,0,20,0,69,-10,00,288,34,0,00,0,00,705,49,0,00,0,00
30362,0,29,0,59,-10,00,-598,39,0,00,0,00,575,10,0,00,0,00
30377,0,29,0,59,-9,90,-273,72,0,00,0,00,490,22,0,00,0,00
30393,0,29,0,49,-9,90,-482,74,0,00,0,00,392,92,0,00,0,00
30409,0,29,0,69,-9,90,84,30,0,00,0,00,362,06,0,00,0,00
30424,0,29,0,69,-9,90,84,30,0,00,0,00,334,28,0,00,0,00
30441,0,29,0,59,-10,00,-598,39,0,00,0,00,241,02,0,00,0,00
30458,0,29,0,59,-10,00,-598,39,0,00,0,00,157,07,0,00,0,00
30475,0,29,0,59,-10,00,-598,39,0,00,0,00,81,53,0,00,0,00
30491,0,29,0,59,-10,00,-598,39,0,00,0,00,13,54,0,00,0,00
30508,0,20,0,69,-9,90,84,30,0,00,0,00,20,61,0,00,0,00
30524,0,20,0,69,-9,90,84,30,0,00,0,00,26,98,0,00,0,00
30541,0,20,0,69,-9,90,84,30,0,00,0,00,32,71,0,00,0,00
30557,0,20,0,69,-10,09,1448,02,0,00,0,00,174,24,0,00,0,00
30574,0,29,0,69,-10,09,1448,02,0,00,0,00,301,62,0,00,0,00
30591,0,29,0,78,-10,00,662,21,0,00,0,00,337,68,0,00,0,00
30608,0,29,0,78,-10,00,662,21,0,00,0,00,370,13,0,00,0,00
30624,0,20,0,59,-10,00,-598,39,0,00,0,00,273,28,0,00,0,00
30646,0,20,0,59,-10,09,-1143,99,0,00,0,00,131,55,0,00,0,00
30662,0,20,0,69,-10,09,1448,02,0,00,0,00,263,20,0,00,0,00
30678,0,20,0,69,-10,09,1448,02,0,00,0,00,381,68,0,00,0,00
30698,0,20,0,69,-10,09,1448,02,0,00,0,00,488,31,0,00,0,00
30715,0,29,0,59,-10,00,-598,39,0,00,0,00,379,64,0,00,0,00
30732,0,29,0,59,-10,00,-598,39,0,00,0,00,281,84,0,00,0,00
30751,0,29,0,59,-10,00,-598,39,0,00,0,00,193,82,0,00,0,00
30771,0,29,0,69,-10,09,1448,02,0,00,0,00,319,24,0,00,0,00
30788,0,20,0,69,-10,09,1448,02,0,00,0,00,432,11,0,00,0,00
30808,0,20,0,69,-10,09,1448,02,0,00,0,00,533,70,0,00,0,00
30824,0,20,0,69,-10,00,288,34,0,00,0,00,509,17,0,00,0,00
30841,0,29,0,59,-10,00,-598,39,0,00,0,00,398,41,0,00,0,00
30858,0,29,0,78,-10,00,662,21,0,00,0,00,424,79,0,00,0,00
30876,0,29,0,78,-10,00,662,21,0,00,0,00,448,53,0,00,0,00
30892,0,29,0,69,-10,09,1448,02,0,00,0,00,548,48,0,00,0,00
30908,0,29,0,69,-10,09,1448,02,0,00,0,00,638,44,0,00,0,00
30924,0,20,0,69,-10,09,1448,02,0,00,0,00,719,39,0,00,0,00
30941,0,20,0,69,-10,09,1448,02,0,00,0,00,792,26,0,00,0,00
30958,0,20,0,59,-10,00,-598,39,0,00,0,00,653,19,0,00,0,00
30977,0,20,0,69,-10,09,1448,02,0,00,0,00,732,67,0,00,0,00
30994,0,29,0,69,-10,09,1448,02,0,00,0,00,804,21,0,00,0,00
31010,0,29,0,69,-10,09,1448,02,0,00,0,00,868,59,0,00,0,00
31025,0,29,0,69,-10,09,1448,02,0,00,0,00,926,53,0,00,0,00
31041,0,29,0,69,-10,09,1448,02,0,00,0,00,978,68,0,00,0,00
31060,0,29,0,69,-10,09,1448,02,0,00,0,00,1025,61,0,00,0,00
31080,0,20,0,69,-10,09,1448,02,0,00,0,00,1067,85,0,00,0,00
31097,0,20,0,69,-10,00,288,34,0,00,0,00,989,90,0,00,0,00
31117,0,29,0,59,-10,00,-598,39,0,00,0,00,831,07,0,00,0,00
31135,0,20,0,78,-10,00,662,21,0,00,0,00,814,19,0,00,0,00
31151,0,20,0,78,-10,00,662,21,0,00,0,00,798,99,0,00,0,00
31168,0,29,0,78,-10,00,662,21,0,00,0,00,785,31,0,00,0,00
31184,0,29,0,78,-10,00,662,21,0,00,0,00,773,00,0,00,0,00
31200,0,29,0,78,-10,00,662,21,0,00,0,00,761,92,0,00,0,00
31216,0,29,0,78,-10,00,662,21,0,00,0,00,751,95,0,00,0,00
31231,0,29,0,59,-10,00,-598,39,0,00,0,00,616,92,0,00,0,00
31248,0,29,0,59,-10,00,-598,39,0,00,0,00,495,39,0,00,0,00
31264,0,29,0,59,-10,00,-598,39,0,00,0,00,386,01,0,00,0,00
31282,0,29,0,69,-10,09,1448,02,0,00,0,00,492,21,0,00,0,00
31299,0,29,0,69,-10,09,1448,02,0,00,0,00,587,79,0,00,0,00
31315,0,29,0,59,-10,00,-598,39,0,00,0,00,469,17,0,00,0,00
31331,0,29,0,59,-10,00,-598,39,0,00,0,00,362,41,0,00,0,00
31348,0,29,0,69,-10,09,1448,02,0,00,0,00,470,97,0,00,0,00
31363,0,29,0,69,-10,00,288,34,0,00,0,00,452,71,0,00,0,00
31378,0,29,0,59,-10,00,-598,39,0,00,0,00,347,60,0,00,0,00
31393,0,29,0,59,-10,09,-1143,99,0,00,0,00,198,44,0,00,0,00
31408,0,20,0,69,-10,09,1448,02,0,00,0,00,323,40,0,00,0,00
31424,0,20,0,69,-10,00,288,34,0,00,0,00,319,89,0,00,0,00
31441,0,29,0,59,-10,00,-598,39,0,00,0,00,228,07,0,00,0,00
31457,0,29,0,59,-9,90,-273,72,0,00,0,00,177,89,0,00,0,00
31478,0,29,0,69,-9,90,84,30,0,00,0,00,168,53,0,00,0,00
31493,0,29,0,69,-10,09,1448,02,0,00,0,00,296,48,0,00,0,00
31508,0,29,0,69,-10,09,1448,02,0,00,0,00,411,63,0,00,0,00
31525,0,29,0,69,-10,09,1448,02,0,00,0,00,515,27,0,00,0,00
31542,0,29,0,69,-10,09,1448,02,0,00,0,00,608,54,0,00,0,00
31558,0,20,0,69,-10,09,1448,02,0,00,0,00,692,49,0,00,0,00
31575,0,20,0,69,-10,00,288,34,0,00,0,00,652,08,0,00,0,00
31602,0,29,0,59,-10,00,-598,39,0,00,0,00,527,03,0,00,0,00
31618,0,29,0,59,-10,00,-598,39,0,00,0,00,414,49,0,00,0,00
31634,0,29,0,59,-9,90,-273,72,0,00,0,00,345,67,0,00,0,00
31650,0,20,0,69,-9,90,84,30,0,00,0,00,319,53,0,00,0,00
31666,0,20,0,69,-10,09,1448,02,0,00,0,00,432,38,0,00,0,00
31682,0,29,0,69,-10,09,1448,02,0,00,0,00,533,94,0,00,0,00
31698,0,29,0,78,-10,00,662,21,0,00,0,00,546,77,0,00,0,00
31714,0,29,0,78,-10,00,662,21,0,00,0,00,558,31,0,00,0,00
31730,0,29,0,69,-10,09,1448,02,0,00,0,00,647,28,0,00,0,00
31746,0,29,0,69,-10,09,1448,02,0,00,0,00,727,36,0,00,0,00
31763,0,29,0,69,-9,90,84,30,0,00,0,00,663,05,0,00,0,00
31791,0,20,0,69,-9,90,84,30,0,00,0,00,605,18,0,00,0,00
31808,0,29,0,69,-9,90,84,30,0,00,0,00,553,09,0,00,0,00
31825,0,29,0,59,-10,00,-598,39,0,00,0,00,437,94,0,00,0,00
31841,0,29,0,59,-10,00,-598,39,0,00,0,00,334,31,0,00,0,00
31857,0,29,0,59,-10,00,-598,39,0,00,0,00,241,04,0,00,0,00
31874,0,29,0,59,-10,00,-598,39,0,00,0,00,157,09,0,00,0,00
31890,0,29,0,78,-10,00,662,21,0,00,0,00,207,61,0,00,0,00
31906,0,29,0,78,-10,09,1061,84,0,00,0,00,293,03,0,00,0,00
31922,0,29,0,69,-10,09,1448,02,0,00,0,00,408,53,0,00,0,00
31938,0,29,0,78,-10,00,662,21,0,00,0,00,433,90,0,00,0,00
31954,0,20,0,78,-10,00,662,21,0,00,0,00,456,73,0,00,0,00
31970,0,20,0,78,-10,00,662,21,0,00,0,00,477,28,0,00,0,00
31986,0,29,0,78,-10,00,662,21,0,00,0,00,495,77,0,00,0,00
32002,0,20,0,59,-9,80,-167,79,0,00,0,00,429,41,0,00,0,00
32018,0,20,0,59,-9,80,-167,79,0,00,0,00,369,69,0,00,0,00
32034,0,20,0,59,-9,80,-167,79,0,00,0,00,315,95,0,00,0,00
32050,0,20,0,59,-9,80,-167,79,0,00,0,00,267,57,0,00,0,00
32066,0,29,0,69,-10,09,1448,02,0,00,0,00,385,62,0,00,0,00
32082,0,29,0,69,-10,09,1448,02,0,00,0,00,491,86,0,00,0,00
32098,0,29,0,69,-9,90,84,30,0,00,0,00,451,10,0,00,0,00
