Time,AccelX,AccelY,AccelZ,TargetAngleX,TargetAngleY,TargetAngleZ,CurrentAngleX,CurrentAngleY,CurrentAngleZ
726,0,78,-5,39,-8,72,-7,80,53,90,-43,60,-1,17,8,08,-6,54
783,0,88,-5,39,-8,82,-8,80,53,90,-44,10,-2,31,14,96,-12,17
921,0,78,-5,29,-8,82,-7,80,52,90,-44,10,-3,14,20,65,-16,96
972,0,78,-5,39,-8,72,-7,80,53,90,-43,60,-3,84,25,64,-20,96
1026,0,78,-5,39,-8,72,-7,80,53,90,-43,60,-4,43,29,88,-24,35
1072,0,78,-5,39,-8,72,-7,80,53,90,-43,60,-4,94,33,48,-27,24
1130,0,78,-5,39,-8,72,-7,80,53,90,-43,60,-5,37,36,54,-29,70
1176,0,78,-5,29,-8,82,-7,80,52,90,-44,10,-5,73,39,00,-31,86
1231,0,78,-5,39,-8,72,-7,80,53,90,-43,60,-6,04,41,23,-33,62
1284,0,78,-5,49,-8,82,-7,80,54,90,-44,10,-6,31,43,28,-35,19
1333,0,78,-5,49,-8,72,-7,80,54,90,-43,60,-6,53,45,02,-36,45
1417,0,78,-5,39,-8,72,-7,80,53,90,-43,60,-6,72,46,36,-37,52
1492,0,78,-5,49,-8,62,-7,80,54,90,-43,10,-6,88,47,64,-38,36
1577,0,78,-5,98,-9,90,-7,80,59,80,-49,50,-7,02,49,46,-40,03
1634,-0,49,-6,27,-9,90,4,90,62,70,-49,50,-5,23,51,45,-41,45
1677,-0,59,-6,08,-10,09,5,90,60,80,-50,45,-3,56,52,85,-42,80
1742,-0,29,-5,68,-9,02,2,90,56,80,-45,10,-2,59,53,44,-43,15
1796,4,31,-4,70,-9,70,-43,10,47,00,-48,50,-8,67,52,48,-43,95
1846,7,45,-2,74,-6,66,-74,50,27,40,-33,30,-18,54,48,72,-42,35
1886,6,66,-4,70,-6,37,-66,60,47,00,-31,85,-25,75,48,46,-40,78
1924,6,96,-5,19,-5,98,-69,60,51,90,-29,90,-32,33,48,97,-39,15
1963,6,66,-5,29,-6,17,-66,60,52,90,-30,85,-37,47,49,56,-37,90
2013,7,55,-4,61,-5,10,-75,50,46,10,-25,50,-43,17,49,04,-36,04
2052,7,55,-4,21,-3,92,-75,50,42,10,-19,60,-48,02,48,00,-33,57
2090,7,74,-4,41,-0,88,-77,40,44,10,-4,40,-52,43,47,42,-29,20
2125,8,13,-4,12,0,10,-81,30,41,20,0,50,-56,76,46,48,-24,74
2164,8,04,-4,41,0,98,-80,40,44,10,4,90,-60,31,46,13,-20,30
2202,10,39,-7,35,5,10,-103,90,73,50,25,50,-66,85,50,23,-13,43
2252,9,21,-2,45,-1,96,-92,10,24,50,-9,80,-70,63,46,37,-12,88
2284,7,06,-4,90,0,78,-70,60,49,00,3,90,-70,63,46,77,-10,37
2316,7,06,-5,59,1,76,-70,60,55,90,8,80,-70,63,48,14,-7,49
2353,7,45,-5,49,0,78,-74,50,54,90,3,90,-71,21,49,15,-5,78
2405,7,55,-5,49,0,78,-75,50,54,90,3,90,-71,86,50,01,-4,33
2453,7,45,-5,98,0,20,-74,50,59,80,1,00,-72,25,51,48,-3,53
2494,8,04,-5,49,-1,18,-80,40,54,90,-5,90,-73,48,51,99,-3,89
2524,8,04,-5,59,-1,27,-80,40,55,90,-6,35,-74,51,52,58,-4,26
2546,8,33,-6,08,-0,49,-83,30,60,80,-2,45,-75,83,53,81,-3,98
2569,8,33,-5,68,-0,69,-83,30,56,80,-3,45,-76,95,54,26,-3,90
2597,8,53,-5,68,-0,49,-85,30,56,80,-2,45,-78,20,54,64,-3,69
2622,8,53,-5,88,0,78,-85,30,58,80,3,90,-79,27,55,27,-2,55
2644,8,82,-6,27,0,78,-88,20,62,70,3,90,-80,61,56,38,-1,58
2670,9,21,-6,96,1,37,-92,10,69,60,6,85,-82,33,58,36,-0,32
2700,9,21,-6,96,1,37,-92,10,69,60,6,85,-83,80,60,05,0,76
2732,8,53,-6,47,-1,37,-85,30,64,70,-6,85,-84,02,60,75,-0,38
2764,7,55,-5,49,-2,35,-75,50,54,90,-11,75,-82,74,59,87,-2,09
2793,6,47,-4,70,-3,53,-64,70,47,00,-17,65,-80,04,57,94,-4,42
2816,3,04,-4,70,-8,53,-30,40,47,00,-42,65,-72,59,56,30,-10,16
2836,3,04,-6,66,-7,15,-30,40,66,60,-35,75,-66,26,57,84,-14,00
2854,0,78,-6,66,-7,15,-7,80,66,60,-35,75,-57,49,59,16,-17,26
2874,0,78,-6,66,-7,15,-7,80,66,60,-35,75,-50,04,60,27,-20,03
2894,0,78,-6,66,-6,08,-7,80,66,60,-30,40,-43,70,61,22,-21,59
2918,-0,29,-7,25,-6,08,2,90,72,50,-30,40,-36,71,62,91,-22,91
2940,-1,86,-7,84,-5,39,18,60,78,40,-26,95,-28,42,65,24,-23,52
2972,-2,65,-8,23,-5,10,26,50,82,30,-25,50,-20,18,67,80,-23,81
2996,-2,74,-8,33,-4,70,27,40,83,30,-23,50,-13,04,70,12,-23,77
3018,-2,74,-8,82,-3,92,27,40,88,20,-19,60,-6,98,72,83,-23,14
3042,-4,02,-8,82,-3,33,40,20,88,20,-16,65,0,10,75,14,-22,17
3064,-4,02,-9,02,-3,33,40,20,90,20,-16,65,6,12,77,40,-21,34
3085,-3,04,-8,82,-1,96,30,40,88,20,-9,80,9,76,79,02,-19,61
3107,-3,04,-8,13,-1,18,30,40,81,30,-5,90,12,85,79,36,-17,55
3130,-2,16,-8,13,-1,18,21,60,81,30,-5,90,14,17,79,65,-15,80
3150,-1,96,-8,04,-0,49,19,60,80,40,-2,45,14,98,79,76,-13,80
3178,-2,94,-7,94,1,57,29,40,79,40,7,85,17,14,79,71,-10,55
3201,-2,94,-7,55,3,92,29,40,75,50,19,60,18,98,79,08,-6,03
3222,-4,02,-7,55,4,61,40,20,75,50,23,05,22,17,78,54,-1,67
3244,-3,53,-7,94,4,61,35,30,79,40,23,05,24,14,78,67,2,04
3266,-3,23,-6,86,7,55,32,30,68,60,37,75,25,36,77,16,7,40
3291,-3,23,-6,86,7,55,32,30,68,60,37,75,26,40,75,88,11,95
3322,-3,23,-6,37,8,82,32,30,63,70,44,10,27,29,74,05,16,77
3351,-1,57,-5,39,8,33,15,70,53,90,41,65,25,55,71,03,20,50
3383,-0,88,-5,49,9,11,8,80,54,90,45,55,23,04,68,61,24,26
3403,-0,59,-5,49,9,11,5,90,54,90,45,55,20,47,66,55,27,45
3425,-0,59,-5,49,9,11,5,90,54,90,45,55,18,28,64,80,30,17
3446,-0,59,-5,00,8,53,5,90,50,00,42,65,16,42,62,58,32,04
3466,-0,59,-5,00,9,02,5,90,50,00,45,10,14,85,60,70,34,00
3485,0,59,-4,61,9,02,-5,90,46,10,45,10,11,73,58,51,35,66
3506,0,49,-3,92,8,53,-4,90,39,20,42,65,9,24,55,61,36,71
3526,0,49,-3,92,8,43,-4,90,39,20,42,15,7,12,53,15,37,53
3546,0,00,-4,12,8,43,-0,00,41,20,42,15,6,05,51,36,38,22
3567,0,29,-3,53,8,13,-2,90,35,30,40,65,4,71,48,95,38,59
3592,0,29,-3,82,8,43,-2,90,38,20,42,15,3,57,47,34,39,12
3619,0,00,-3,82,8,62,-0,00,38,20,43,10,3,03,45,97,39,72
3639,-0,20,-3,82,8,62,2,00,38,20,43,10,2,88,44,80,40,22
3658,-0,20,-3,53,8,53,2,00,35,30,42,65,2,75,43,38,40,59
3685,-0,20,-3,53,8,53,2,00,35,30,42,65,2,63,42,16,40,90
3707,-0,20,-3,53,8,53,2,00,35,30,42,65,2,54,41,13,41,16
3731,-0,49,-3,53,8,82,4,90,35,30,44,10,2,89,40,26,41,60
3748,0,20,-3,63,8,82,-2,00,36,30,44,10,2,16,39,67,41,98
3770,0,20,-2,94,8,82,-2,00,29,40,44,10,1,53,38,13,42,29
3796,0,00,-2,94,8,82,-0,00,29,40,44,10,1,30,36,82,42,57
3821,-0,20,-2,74,9,70,2,00,27,40,48,50,1,41,35,40,43,46
3845,-0,20,-2,65,9,70,2,00,26,50,48,50,1,50,34,07,44,21
3869,0,00,-2,35,9,31,-0,00,23,50,46,55,1,27,32,48,44,56
3889,0,00,-2,06,8,53,-0,00,20,60,42,65,1,08,30,70,44,28
3911,-0,20,-2,06,9,11,2,00,20,60,45,55,1,22,29,19,44,47
3935,0,49,-1,86,9,11,-4,90,18,60,45,55,0,30,27,60,44,63
3956,0,88,-1,67,9,70,-8,80,16,70,48,50,-1,06,25,96,45,21
3980,0,88,-1,86,10,88,-8,80,18,60,54,40,-2,22,24,86,46,59
4013,0,88,-2,35,11,96,-8,80,23,50,59,80,-3,21,24,65,48,57
4037,0,00,-2,74,12,84,-0,00,27,40,64,20,-2,73,25,07,50,91
4060,0,20,-2,74,12,84,-2,00,27,40,64,20,-2,62,25,42,52,91
4086,0,00,-4,70,16,17,-0,00,47,00,80,85,-2,23,28,65,57,10
4106,0,00,-3,23,12,25,-0,00,32,30,61,25,-1,89,29,20,57,72
4124,0,00,-3,23,11,37,-0,00,32,30,56,85,-1,61,29,67,57,59
4146,-0,29,-3,53,11,37,2,90,35,30,56,85,-0,93,30,51,57,48
4165,-0,29,-3,53,11,37,2,90,35,30,56,85,-0,36,31,23,57,39
4183,-0,29,-3,53,8,53,2,90,35,30,42,65,0,13,31,84,55,17
4203,0,20,-3,72,8,53,-2,00,37,20,42,65,-0,19,32,64,53,30
4231,2,35,-4,02,7,15,-23,50,40,20,35,75,-3,69,33,78,50,66
4253,2,35,-4,02,7,15,-23,50,40,20,35,75,-6,66,34,74,48,43
4273,2,35,-4,02,3,92,-23,50,40,20,19,60,-9,18,35,56,44,10
4292,3,04,-3,92,3,92,-30,40,39,20,19,60,-12,37,36,11,40,43
4316,2,74,-4,90,0,78,-27,40,49,00,3,90,-14,62,38,04,34,95
4337,2,74,-5,59,-0,29,-27,40,55,90,-1,45,-16,54,40,72,29,49
4362,2,45,-5,59,-1,86,-24,50,55,90,-9,30,-17,73,43,00,23,67
4390,1,86,-5,29,-1,86,-18,60,52,90,-9,30,-17,86,44,48,18,72
4412,3,43,-4,61,-2,25,-34,30,46,10,-11,25,-20,33,44,72,14,23
4434,3,43,-3,33,-4,21,-34,30,33,30,-21,05,-22,42,43,01,8,94
4455,3,43,-3,33,-10,00,-34,30,33,30,-50,00,-24,21,41,55,0,10
4476,3,72,-1,27,-10,00,-37,20,12,70,-50,00,-26,15,37,23,-7,42
4497,4,80,-0,98,-9,70,-48,00,9,80,-48,50,-29,43,33,11,-13,58
4518,4,80,0,00,-10,88,-48,00,-0,00,-54,40,-32,22,28,15,-19,70
4537,6,66,0,00,-10,88,-66,60,-0,00,-54,40,-37,37,23,92,-24,91
4556,5,10,0,29,-10,39,-51,00,-2,90,-51,95,-39,42,19,90,-28,96
4574,5,10,0,29,-10,39,-51,00,-2,90,-51,95,-41,16,16,48,-32,41
4594,5,10,0,29,-10,39,-51,00,-2,90,-51,95,-42,63,13,57,-35,34
4612,5,59,0,98,-10,49,-55,90,-9,80,-52,45,-44,62,10,07,-37,91
4633,5,59,0,98,-10,09,-55,90,-9,80,-50,45,-46,31,7,09,-39,79
4654,8,53,1,86,-10,09,-85,30,-18,60,-50,45,-52,16,3,23,-41,39
4676,8,53,2,55,-10,00,-85,30,-25,50,-50,00,-57,13,-1,08,-42,68
4696,8,53,2,55,-9,80,-85,30,-25,50,-49,00,-61,36,-4,74,-43,63
4733,7,74,2,06,-8,53,-77,40,-20,60,-42,65,-63,76,-7,12,-43,48
4754,7,74,2,06,-7,94,-77,40,-20,60,-39,70,-65,81,-9,14,-42,91
4779,7,74,2,06,-7,94,-77,40,-20,60,-39,70,-67,55,-10,86,-42,43
4798,7,45,1,86,-7,94,-74,50,-18,60,-39,70,-68,59,-12,02,-42,02
4819,7,45,1,27,-7,55,-74,50,-12,70,-37,75,-69,48,-12,12,-41,38
4837,6,37,1,27,-7,55,-63,70,-12,70,-37,75,-68,61,-12,21,-40,84
4856,6,47,1,08,-7,55,-64,70,-10,80,-37,75,-68,02,-12,00,-40,37
4879,6,47,0,98,-7,25,-64,70,-9,80,-36,25,-67,53,-11,67,-39,76
4905,6,66,0,98,-6,96,-66,60,-9,80,-34,80,-67,39,-11,39,-39,01
4931,6,37,0,78,-6,96,-63,70,-7,80,-34,80,-66,83,-10,85,-38,38
4961,6,17,0,59,-6,96,-61,70,-5,90,-34,80,-66,06,-10,11,-37,84
4985,6,66,1,27,-7,06,-66,60,-12,70,-35,30,-66,14,-10,50,-37,46
5005,6,66,1,27,-7,06,-66,60,-12,70,-35,30,-66,21,-10,83,-37,14
5024,6,66,1,27,-8,13,-66,60,-12,70,-40,65,-66,27,-11,11,-37,66
5044,7,45,2,06,-8,13,-74,50,-20,60,-40,65,-67,50,-12,53,-38,11
5066,7,25,2,06,-8,53,-72,50,-20,60,-42,65,-68,25,-13,74,-38,79
5091,7,25,2,94,-9,80,-72,50,-29,40,-49,00,-68,89,-16,09,-40,32
5116,8,13,2,94,-10,78,-81,30,-29,40,-53,90,-70,75,-18,09,-42,36
5140,8,53,2,74,-10,78,-85,30,-27,40,-53,90,-72,93,-19,48,-44,09
5163,8,82,2,55,-10,49,-88,20,-25,50,-52,45,-75,22,-20,39,-45,35
5183,8,82,3,04,-11,56,-88,20,-30,40,-57,80,-77,17,-21,89,-47,21
5203,8,82,3,04,-11,37,-88,20,-30,40,-56,85,-78,83,-23,17,-48,66
5224,6,96,2,74,-11,37,-69,60,-27,40,-56,85,-77,44,-23,80,-49,89
5243,4,90,1,47,-8,43,-49,00,-14,70,-42,15,-73,18,-22,44,-48,73
5262,4,90,1,47,-5,00,-49,00,-14,70,-25,00,-69,55,-21,28,-45,17
5281,2,74,-2,06,-5,00,-27,40,20,60,-25,00,-63,23,-14,99,-42,14
5303,1,08,-4,21,-3,53,-10,80,42,10,-17,65,-55,36,-6,43,-38,47
5324,1,08,-4,21,-2,35,-10,80,42,10,-11,75,-48,68,0,85,-34,46
5375,0,88,-4,90,0,20,-8,80,49,00,1,00,-42,70,8,07,-29,14
5394,-0,78,-5,10,3,14,7,80,51,00,15,70,-35,12,14,51,-22,42
5418,-0,78,-5,10,3,14,7,80,51,00,15,70,-28,68,19,98,-16,70
5438,-0,78,-5,10,3,14,7,80,51,00,15,70,-23,21,24,64,-11,84
5457,-0,20,-3,92,4,41,2,00,39,20,22,05,-19,43,26,82,-6,76
5475,-0,20,-3,92,7,74,2,00,39,20,38,70,-16,22,28,68,0,06
5498,2,16,-2,84,7,74,-21,60,28,40,38,70,-17,02,28,64,5,86
5518,2,35,-2,45,9,60,-23,50,24,50,48,00,-17,99,28,02,12,18
5539,2,35,-0,20,11,96,-23,50,2,00,59,80,-18,82,24,11,19,32
5557,1,86,-0,20,11,96,-18,60,2,00,59,80,-18,79,20,80,25,39
5588,2,65,-0,10,11,66,-26,50,1,00,58,30,-19,94,17,83,30,33
5612,2,65,-0,10,12,15,-26,50,1,00,60,75,-20,93,15,30,34,89
5632,1,96,-0,69,13,33,-19,60,6,90,66,65,-20,73,14,04,39,66
5652,1,96,-0,69,11,66,-19,60,6,90,58,30,-20,56,12,97,42,45
5673,1,37,0,49,11,66,-13,70,-4,90,58,30,-19,53,10,29,44,83
5694,1,86,1,18,10,39,-18,60,-11,80,51,95,-19,39,6,98,45,90
5713,1,86,1,18,9,41,-18,60,-11,80,47,05,-19,27,4,16,46,07
5736,2,65,0,98,9,41,-26,50,-9,80,47,05,-20,36,2,07,46,22
5755,1,96,0,39,8,92,-19,60,-3,90,44,60,-20,24,1,17,45,98
5774,1,96,0,39,8,72,-19,60,-3,90,43,60,-20,15,0,41,45,62
5792,1,67,0,29,8,72,-16,70,-2,90,43,60,-19,63,-0,09,45,32
5812,1,67,0,29,9,11,-16,70,-2,90,45,55,-19,19,-0,51,45,35
5831,1,67,0,29,9,11,-16,70,-2,90,45,55,-18,82,-0,87,45,35
5848,1,67,0,29,9,11,-16,70,-2,90,45,55,-18,50,-1,17,45,35
5865,1,67,0,29,9,31,-16,70,-2,90,46,55,-18,23,-1,43,45,53
5881,1,67,0,29,9,31,-16,70,-2,90,46,55,-18,00,-1,65,45,68
5897,1,67,0,10,9,51,-16,70,-1,00,47,55,-17,80,-1,55,45,96
5913,1,57,0,10,9,51,-15,70,-1,00,47,55,-17,49,-1,47,46,20
5933,1,37,0,00,9,31,-13,70,-0,00,46,55,-16,92,-1,25,46,25
5950,1,37,0,00,9,31,-13,70,-0,00,46,55,-16,44,-1,06,46,30
5973,1,27,0,20,9,41,-12,70,-2,00,47,05,-15,88,-1,20,46,41
5990,1,67,0,20,10,29,-16,70,-2,00,51,45,-16,00,-1,32,47,17
6008,1,67,0,20,10,29,-16,70,-2,00,51,45,-16,11,-1,42,47,81
6026,1,57,0,29,12,94,-15,70,-2,90,64,70,-16,04,-1,65,50,34
6045,1,57,0,29,14,70,-15,70,-2,90,73,50,-15,99,-1,83,53,82
6062,1,96,0,00,14,70,-19,60,-0,00,73,50,-16,53,-1,56,56,77
6081,1,96,-1,37,17,25,-19,60,13,70,86,25,-16,99,0,73,61,19
6099,-0,29,-1,37,17,25,2,90,13,70,86,25,-14,01,2,68,64,95
6115,-2,45,-1,76,14,41,24,50,17,60,72,05,-8,23,4,91,66,02
6131,-2,45,-1,76,12,74,24,50,17,60,63,70,-3,32,6,82,65,67
6147,-2,16,-1,67,12,74,21,60,16,70,63,70,0,42,8,30,65,37
6165,-2,16,-1,67,9,80,21,60,16,70,49,00,3,59,9,56,62,92
6181,-0,29,-1,37,9,80,2,90,13,70,49,00,3,49,10,18,60,83
6197,-0,29,-0,98,7,25,2,90,9,80,36,25,3,40,10,12,57,14
6213,1,37,-0,98,7,25,-13,70,9,80,36,25,0,84,10,08,54,01
6229,1,37,-1,08,5,88,-13,70,10,80,29,40,-1,34,10,18,50,32
6246,1,96,-1,08,5,88,-19,60,10,80,29,40,-4,08,10,28,47,18
6262,3,82,-1,67,3,43,-38,20,16,70,17,15,-9,20,11,24,42,68
6279,3,82,-1,67,3,43,-38,20,16,70,17,15,-13,55,12,06,38,85
6295,3,82,-1,67,3,43,-38,20,16,70,17,15,-17,25,12,75,35,59
6312,3,82,-1,67,1,47,-38,20,16,70,7,35,-20,39,13,35,31,36
6329,5,29,-2,84,1,47,-52,90,28,40,7,35,-25,27,15,60,27,75
6345,5,29,-2,84,-0,10,-52,90,28,40,-0,50,-29,41,17,52,23,52
6373,5,98,-2,94,-1,57,-59,80,29,40,-7,85,-33,97,19,31,18,81
6393,6,96,-2,84,-1,57,-69,60,28,40,-7,85,-39,31,20,67,14,81
6410,6,96,-2,06,-3,53,-69,60,20,60,-17,65,-43,86,20,67,9,94
6428,8,53,-2,06,-3,53,-85,30,20,60,-17,65,-50,07,20,67,5,80
6446,9,21,-1,27,-4,90,-92,10,12,70,-24,50,-56,38,19,47,1,26
6462,9,21,-1,27,-5,98,-92,10,12,70,-29,90,-61,74,18,46,-3,42
6478,11,27,-0,39,-5,98,-112,70,3,90,-29,90,-69,38,16,27,-7,39
6494,11,27,-0,39,-5,59,-112,70,3,90,-27,95,-75,88,14,42,-10,47
6512,11,56,-1,57,-5,59,-115,60,15,70,-27,95,-81,84,14,61,-13,09
6528,11,56,-2,35,-6,57,-115,60,23,50,-32,85,-86,90,15,94,-16,06
6544,10,78,-2,35,-6,57,-107,80,23,50,-32,85,-90,04,17,08,-18,58
6560,10,78,-1,96,-4,90,-107,80,19,60,-24,50,-92,70,17,46,-19,46
6576,10,78,-1,96,-4,90,-107,80,19,60,-24,50,-94,97,17,78,-20,22
6598,11,56,-2,25,-2,35,-115,60,22,50,-11,75,-98,06,18,49,-18,95
6614,11,56,-2,25,-1,96,-115,60,22,50,-9,80,-100,69,19,09,-17,58
6632,10,00,-2,84,-1,96,-100,00,28,40,-9,80,-100,59,20,48,-16,41
6648,10,00,-3,23,-2,65,-100,00,32,30,-13,25,-100,50,22,26,-15,94
6664,8,82,-3,23,-2,65,-88,20,32,30,-13,25,-98,65,23,76,-15,53
6683,9,11,-3,23,-2,65,-91,10,32,30,-13,25,-97,52,25,04,-15,19
6701,9,11,-3,23,-2,65,-91,10,32,30,-13,25,-96,56,26,13,-14,90
6717,9,11,-3,23,-2,65,-91,10,32,30,-13,25,-95,74,27,06,-14,65
6739,9,11,-3,04,-1,67,-91,10,30,40,-8,35,-95,04,27,56,-13,71
6761,9,11,-3,04,-1,67,-91,10,30,40,-8,35,-94,45,27,99,-12,90
6777,9,11,-3,04,-3,14,-91,10,30,40,-15,70,-93,95,28,35,-13,32
6795,9,11,-3,04,-2,65,-91,10,30,40,-13,25,-93,52,28,66,-13,32
6812,8,82,-3,43,-2,65,-88,20,34,30,-13,25,-92,72,29,50,-13,32
6829,8,82,-3,33,-0,98,-88,20,33,30,-4,90,-92,05,30,07,-12,06
6845,9,60,-3,33,-0,98,-96,00,33,30,-4,90,-92,64,30,56,-10,99
6864,9,41,-2,74,-2,25,-94,10,27,40,-11,25,-92,86,30,08,-11,03
6880,9,41,-2,74,-2,25,-94,10,27,40,-11,25,-93,04,29,68,-11,06
6896,10,00,-2,94,-2,06,-100,00,29,40,-10,30,-94,09,29,64,-10,95
6912,10,00,-2,94,-2,55,-100,00,29,40,-12,75,-94,97,29,60,-11,22
6929,12,35,-1,86,-2,55,-123,50,18,60,-12,75,-99,25,27,95,-11,45
6945,12,35,-1,86,-4,41,-123,50,18,60,-22,05,-102,89,26,55,-13,04
6961,13,13,-0,49,-4,41,-131,30,4,90,-22,05,-107,15,23,30,-14,39
6979,13,13,1,37,-7,94,-131,30,-13,70,-39,70,-110,77,17,75,-18,19
6995,12,94,1,37,-7,94,-129,40,-13,70,-39,70,-113,57,13,03,-21,41
7012,10,39,0,20,-5,10,-103,90,-2,00,-25,50,-112,12,10,78,-22,03
7028,10,39,0,20,-5,10,-103,90,-2,00,-25,50,-110,88,8,86,-22,55
7044,7,84,-0,69,-4,41,-78,40,6,90,-22,05,-106,01,8,57,-22,47
7060,7,84,-0,69,-4,41,-78,40,6,90,-22,05,-101,87,8,32,-22,41
7077,2,74,-3,23,-3,53,-27,40,32,30,-17,65,-90,70,11,91,-21,70
7095,2,74,-3,23,-2,45,-27,40,32,30,-12,25,-81,20,14,97,-20,28
7114,-0,88,-4,12,-2,45,8,80,41,20,-12,25,-67,70,18,91,-19,07
7138,-0,88,-4,12,-2,45,8,80,41,20,-12,25,-56,23,22,25,-18,05
7157,-0,88,-3,43,-0,49,8,80,34,30,-2,45,-46,47,24,06,-15,71
7174,-0,20,-3,43,-0,49,2,00,34,30,-2,45,-39,20,25,59,-13,72
7192,1,96,-0,10,3,72,-19,60,1,00,18,60,-36,26,21,91,-8,87
7210,1,96,-0,10,3,72,-19,60,1,00,18,60,-33,76,18,77,-4,75
7227,2,94,2,35,11,37,-29,40,-23,50,56,85,-33,11,12,43,4,49
7243,2,94,2,35,16,17,-29,40,-23,50,80,85,-32,55,7,04,15,94
7259,-0,29,0,78,16,17,2,90,-7,80,80,85,-27,23,4,81,25,68
7275,-0,29,0,78,19,80,2,90,-7,80,99,00,-22,71,2,92,36,68
7296,0,59,-3,53,19,80,-5,90,35,30,99,00,-20,19,7,78,46,03
7312,0,49,-1,37,14,80,-4,90,13,70,74,00,-17,90,8,67,50,22
7331,0,49,-1,37,12,35,-4,90,13,70,61,75,-15,95,9,42,51,95
7349,1,37,-0,88,12,35,-13,70,8,80,61,75,-15,61,9,33,53,42
7365,1,37,-0,88,9,41,-13,70,8,80,47,05,-15,32,9,25,52,47
7381,2,74,-0,78,9,41,-27,40,7,80,47,05,-17,14,9,03,51,65
7397,2,74,-0,78,8,82,-27,40,7,80,44,10,-18,68,8,85,50,52
7413,2,16,-0,78,8,82,-21,60,7,80,44,10,-19,11,8,69,49,56
7429,2,16,-0,88,9,51,-21,60,8,80,47,55,-19,49,8,69,49,26
7446,1,08,-0,88,9,51,-10,80,8,80,47,55,-18,18,8,69,49,00
7463,0,29,-1,37,10,78,-2,90,13,70,53,90,-15,89,9,44,49,73
7479,0,29,-1,37,10,78,-2,90,13,70,53,90,-13,94,10,08,50,36
7495,0,49,-1,27,10,39,-4,90,12,70,51,95,-12,59,10,47,50,60
7511,0,49,-1,27,10,39,-4,90,12,70,51,95,-11,43,10,81,50,80
7527,0,59,-0,98,9,31,-5,90,9,80,46,55,-10,60,10,66,50,16
7543,0,59,-0,98,9,31,-5,90,9,80,46,55,-9,90,10,53,49,62
7563,0,59,-0,98,9,31,-5,90,9,80,46,55,-9,30,10,42,49,16
7580,0,59,-1,18,9,51,-5,90,11,80,47,55,-8,79,10,63,48,92
7596,0,78,-1,18,9,51,-7,80,11,80,47,55,-8,64,10,80,48,71
7613,0,78,-1,18,9,51,-7,80,11,80,47,55,-8,51,10,95,48,54
7630,0,78,-1,18,9,51,-7,80,11,80,47,55,-8,41,11,08,48,39
7646,0,29,-1,67,11,27,-2,90,16,70,56,35,-7,58,11,92,49,58
7663,0,29,-1,67,15,39,-2,90,16,70,76,95,-6,88,12,64,53,69
7681,-1,08,-3,04,15,39,10,80,30,40,76,95,-4,23,15,30,57,18
7697,-1,08,-2,65,15,68,10,80,26,50,78,40,-1,97,16,98,60,36
7713,-1,86,-2,65,15,68,18,60,26,50,78,40,1,11,18,41,63,07
7729,-1,86,-1,67,16,17,18,60,16,70,80,85,3,74,18,15,65,73
7745,-1,86,-1,67,16,17,18,60,16,70,80,85,5,97,17,94,68,00
7761,-1,08,-0,98,12,94,10,80,9,80,64,70,6,69,16,72,67,51
7777,-1,08,-0,98,12,94,10,80,9,80,64,70,7,31,15,68,67,09
7794,-1,27,-1,57,12,15,12,70,15,70,60,75,8,12,15,68,66,14
7811,-1,27,-1,57,9,02,12,70,15,70,45,10,8,80,15,68,62,98
7828,0,00,0,49,9,02,-0,00,-4,90,45,10,7,48,12,59,60,30
7844,0,00,0,49,6,17,-0,00,-4,90,30,85,6,36,9,97,55,88
7860,5,68,2,55,6,17,-56,80,-25,50,30,85,-3,11,4,65,52,13
7876,5,68,2,55,3,53,-56,80,-25,50,17,65,-11,17,0,13,46,95
7892,6,76,3,72,3,53,-67,60,-37,20,17,65,-19,63,-5,47,42,56
7908,6,76,3,23,-2,94,-67,60,-32,30,-14,70,-26,83,-9,50,33,97
7926,7,55,3,23,-2,94,-75,50,-32,30,-14,70,-34,13,-12,92,26,67
7942,6,96,2,94,-6,17,-69,60,-29,40,-30,85,-39,45,-15,39,18,04
7960,6,96,2,94,-6,17,-69,60,-29,40,-30,85,-43,97,-17,49,10,71
7978,8,92,2,45,-8,82,-89,20,-24,50,-44,10,-50,76,-18,54,2,49
7994,8,92,2,45,-8,82,-89,20,-24,50,-44,10,-56,52,-19,44,-4,50
8010,8,92,2,45,-8,82,-89,20,-24,50,-44,10,-61,42,-20,20,-10,44
8029,8,92,2,45,-8,82,-89,20,-24,50,-44,10,-65,59,-20,84,-15,49
8045,8,92,2,45,-8,82,-89,20,-24,50,-44,10,-69,13,-21,39,-19,78
8061,12,15,2,45,-10,58,-121,50,-24,50,-52,90,-76,99,-21,86,-24,75
8077,12,15,2,45,-10,58,-121,50,-24,50,-52,90,-83,66,-22,25,-28,97
8093,11,47,0,88,-8,72,-114,70,-8,80,-43,60,-88,32,-20,24,-31,17
8109,11,47,0,88,-8,72,-114,70,-8,80,-43,60,-92,28,-18,52,-33,03
8125,9,60,-1,18,-5,39,-96,00,11,80,-26,95,-92,83,-13,97,-32,12
8141,9,60,-1,18,-5,49,-96,00,11,80,-27,45,-93,31,-10,11,-31,42
8160,8,62,-1,27,-5,49,-86,20,12,70,-27,45,-92,24,-6,69,-30,82
8176,8,62,-0,59,-7,15,-86,20,5,90,-35,75,-91,34,-4,80,-31,56
8192,8,13,-0,59,-7,15,-81,30,5,90,-35,75,-89,83,-3,19,-32,19
8208,8,13,-0,20,-6,96,-81,30,2,00,-34,80,-88,55,-2,41,-32,58
8224,8,62,-0,20,-6,96,-86,20,2,00,-34,80,-88,20,-1,75,-32,91
8241,8,53,-0,69,-6,37,-85,30,6,90,-31,85,-87,76,-0,45,-32,75
8257,8,53,-0,69,-6,37,-85,30,6,90,-31,85,-87,39,0,65,-32,62
8276,7,84,-1,37,-5,78,-78,40,13,70,-28,90,-86,05,2,61,-32,06
8292,7,84,-1,37,-6,08,-78,40,13,70,-30,40,-84,90,4,27,-31,81
8308,8,04,-1,96,-6,08,-80,40,19,60,-30,40,-84,22,6,57,-31,60
8325,8,04,-1,96,-6,57,-80,40,19,60,-32,85,-83,65,8,52,-31,79
8342,7,84,-2,74,-6,57,-78,40,27,40,-32,85,-82,86,11,36,-31,95
8358,7,84,-4,02,-8,23,-78,40,40,20,-41,15,-82,19,15,68,-33,33
8374,7,45,-4,02,-8,23,-74,50,40,20,-41,15,-81,04,19,36,-34,50
8394,7,06,-5,10,-7,84,-70,60,51,00,-39,20,-79,47,24,11,-35,21
8411,7,06,-5,10,-7,84,-70,60,51,00,-39,20,-78,14,28,14,-35,80
8427,7,06,-5,10,-7,84,-70,60,51,00,-39,20,-77,01,31,57,-36,31
8448,7,06,-6,57,-5,29,-70,60,65,70,-26,45,-76,05,36,69,-34,83
8464,6,17,-6,57,-5,29,-61,70,65,70,-26,45,-73,90,41,04,-33,58
8480,6,17,-5,78,-5,59,-61,70,57,80,-27,95,-72,07,43,55,-32,73
8498,4,02,-5,78,-5,59,-40,20,57,80,-27,95,-67,29,45,69,-32,02
8518,4,90,-5,49,-5,00,-49,00,54,90,-25,00,-64,54,47,07,-30,96
8536,4,90,-4,21,-6,96,-49,00,42,10,-34,80,-62,21,46,33,-31,54
8557,5,29,-4,21,-6,96,-52,90,42,10,-34,80,-60,82,45,69,-32,03
8576,7,25,-2,94,-9,31,-72,50,29,40,-46,55,-62,57,43,25,-34,21
8595,7,25,-2,94,-10,19,-72,50,29,40,-50,95,-64,06,41,17,-36,72
8612,6,96,-2,06,-10,19,-69,60,20,60,-50,95,-64,89,38,09,-38,85
8634,6,47,-2,06,-9,31,-64,70,20,60,-46,55,-64,89,35,46,-40,01
8650,6,47,-2,06,-9,31,-64,70,20,60,-46,55,-64,89,33,23,-40,99
8671,6,76,-2,25,-5,49,-67,60,22,50,-27,45,-65,30,31,62,-38,96
8688,6,76,-0,78,-7,45,-67,60,7,80,-37,25,-65,64,28,05,-38,70
8706,7,55,-0,78,-7,45,-75,50,7,80,-37,25,-67,12,25,01,-38,48
8723,6,66,-1,47,-5,68,-66,60,14,70,-28,40,-67,04,23,47,-36,97
8739,6,66,-1,47,-5,68,-66,60,14,70,-28,40,-66,98,22,15,-35,69
8755,4,90,0,39,-6,76,-49,00,-3,90,-33,80,-64,28,18,24,-35,40
8771,4,90,0,39,-7,35,-49,00,-3,90,-36,75,-61,99,14,92,-35,60
8788,1,67,1,57,-7,35,-16,70,-15,70,-36,75,-55,19,10,33,-35,78
8806,1,67,1,67,-10,68,-16,70,-16,70,-53,40,-49,42,6,27,-38,42
8822,3,23,1,67,-10,68,-32,30,-16,70,-53,40,-46,85,2,83,-40,67
8839,3,23,1,67,-10,68,-32,30,-16,70,-53,40,-44,67,-0,10,-42,58
8858,3,23,1,67,-10,68,-32,30,-16,70,-53,40,-42,81,-2,59,-44,20
8875,1,37,2,25,-11,56,-13,70,-22,50,-57,80,-38,45,-5,58,-46,24
8899,1,37,1,86,-11,37,-13,70,-18,60,-56,85,-34,73,-7,53,-47,83
8916,1,57,1,86,-11,37,-15,70,-18,60,-56,85,-31,88,-9,19,-49,18
8932,0,20,1,86,-11,56,-2,00,-18,60,-57,80,-27,40,-10,60,-50,48
8948,0,20,1,86,-11,56,-2,00,-18,60,-57,80,-23,59,-11,80,-51,58
8965,0,59,1,37,-11,56,-5,90,-13,70,-57,80,-20,93,-12,09,-52,51
8981,0,59,1,37,-12,05,-5,90,-13,70,-60,25,-18,68,-12,33,-53,67
8997,1,86,1,67,-12,05,-18,60,-16,70,-60,25,-18,68,-12,98,-54,66
9017,1,86,1,47,-10,19,-18,60,-14,70,-50,95,-18,68,-13,24,-54,10
9034,2,35,1,47,-10,19,-23,50,-14,70,-50,95,-19,40,-13,46,-53,63
9059,1,67,0,78,-8,13,-16,70,-7,80,-40,65,-19,00,-12,61,-51,68
9084,1,67,-0,29,-8,53,-16,70,2,90,-42,65,-18,65,-10,28,-50,33
9102,0,00,-0,29,-11,07,-0,00,2,90,-55,35,-15,85,-8,31,-51,08
9130,0,78,1,47,-11,07,-7,80,-14,70,-55,35,-14,65,-9,27,-51,72
9146,-1,27,1,18,-13,92,12,70,-11,80,-69,60,-10,54,-9,65,-54,40
9163,-1,27,1,18,-11,27,12,70,-11,80,-56,35,-7,06,-9,97,-54,69
9179,-1,27,0,00,-11,27,12,70,-0,00,-56,35,-4,09,-8,47,-54,94
9196,-1,27,0,00,-7,94,12,70,-0,00,-39,70,-1,58,-7,20,-52,66
9213,-1,08,-0,59,-7,94,10,80,5,90,-39,70,0,28,-5,24,-50,71
9231,-0,78,-0,20,-8,43,7,80,2,00,-42,15,1,41,-4,15,-49,43
9247,-0,78,-0,20,-8,43,7,80,2,00,-42,15,2,37,-3,23,-48,34
9263,-0,78,-0,20,-8,43,7,80,2,00,-42,15,3,18,-2,44,-47,41
9279,-0,78,-0,20,-8,43,7,80,2,00,-42,15,3,88,-1,78,-46,62
9298,-1,08,-0,10,-10,19,10,80,1,00,-50,95,4,91,-1,36,-47,27
9327,-1,08,0,10,-11,66,10,80,-1,00,-58,30,5,80,-1,31,-48,92
9346,-1,96,-0,20,-10,58,19,60,2,00,-52,90,7,87,-0,81,-49,52
9367,-2,35,-0,20,-10,58,23,50,2,00,-52,90,10,21,-0,39,-50,03
9386,-2,94,-0,69,-9,51,29,40,6,90,-47,55,13,09,0,70,-49,66
9407,-2,94,-0,10,-10,19,29,40,1,00,-50,95,15,54,0,75,-49,85
9423,-2,16,-0,10,-10,19,21,60,1,00,-50,95,16,45,0,79,-50,01
9440,-0,49,0,49,-10,49,4,90,-4,90,-52,45,14,71,-0,07,-50,38
9456,-0,49,0,49,-10,49,4,90,-4,90,-52,45,13,24,-0,79,-50,69
9475,0,20,1,18,-10,29,-2,00,-11,80,-51,45,10,96,-2,44,-50,80
9491,0,20,1,18,-10,29,-2,00,-11,80,-51,45,9,01,-3,85,-50,90
9508,0,20,1,18,-10,29,-2,00,-11,80,-51,45,7,36,-5,04,-50,98
9526,0,20,0,10,-8,82,-2,00,-1,00,-44,10,5,96,-4,43,-49,95
9543,-1,27,0,10,-8,82,12,70,-1,00,-44,10,6,97,-3,92,-49,07
9559,-1,27,0,78,-10,78,12,70,-7,80,-53,90,7,83,-4,50,-49,80
9575,-0,78,0,78,-10,78,7,80,-7,80,-53,90,7,83,-5,00,-50,41
9591,0,00,-1,37,-8,23,-0,00,13,70,-41,15,6,65,-2,19,-49,02
9608,0,00,-1,37,-8,23,-0,00,13,70,-41,15,5,66,0,19,-47,84
9624,-1,96,1,08,-10,39,19,60,-10,80,-51,95,7,75,-1,46,-48,46
9640,-1,96,1,08,-10,39,19,60,-10,80,-51,95,9,53,-2,86,-48,98
9657,-2,16,0,78,-9,60,21,60,-7,80,-48,00,11,34,-3,60,-48,83
9673,-2,16,0,78,-9,31,21,60,-7,80,-46,55,12,88,-4,23,-48,49
9689,-0,78,0,98,-9,31,7,80,-9,80,-46,55,12,11,-5,06,-48,20
9706,-0,78,0,98,-9,31,7,80,-9,80,-46,55,11,47,-5,78,-47,95
9722,-0,78,0,98,-9,31,7,80,-9,80,-46,55,10,92,-6,38,-47,74
9738,-0,78,1,27,0,88,7,80,-12,70,4,40,10,45,-7,33,-39,92
9755,3,53,1,27,0,88,-35,30,-12,70,4,40,3,59,-8,13,-33,27
9773,-1,08,2,06,-12,05,10,80,-20,60,-60,25,4,67,-10,00,-37,32
9790,-1,08,2,06,-12,05,10,80,-20,60,-60,25,5,59,-11,59,-40,76
9808,-0,20,1,67,-10,88,2,00,-16,70,-54,40,5,05,-12,36,-42,81
9825,-0,20,1,67,-10,39,2,00,-16,70,-51,95,4,59,-13,01,-44,18
9841,-1,67,1,08,-10,39,16,70,-10,80,-51,95,6,41,-12,68,-45,34
9857,-1,67,0,98,-10,49,16,70,-9,80,-52,45,7,95,-12,25,-46,41
9874,-2,45,0,98,-10,49,24,50,-9,80,-52,45,10,43,-11,88,-47,32
9893,1,86,3,23,-9,80,-18,60,-32,30,-49,00,6,08,-14,94,-47,57
9909,1,86,3,23,-9,80,-18,60,-32,30,-49,00,2,38,-17,55,-47,78
9925,-0,59,1,08,-10,00,5,90,-10,80,-50,00,2,91,-16,53,-48,12
9941,-0,59,1,08,-9,60,5,90,-10,80,-48,00,3,36,-15,67,-48,12
9957,0,00,0,78,-9,60,-0,00,-7,80,-48,00,2,85,-14,49,-48,12
9973,0,00,0,78,-10,49,-0,00,-7,80,-52,45,2,42,-13,49,-48,77
9990,-2,35,0,49,-10,49,23,50,-4,90,-52,45,5,59,-12,20,-49,32
10008,-2,35,1,96,-10,00,23,50,-19,60,-50,00,8,27,-13,31,-49,42
10024,0,59,1,96,-10,00,-5,90,-19,60,-50,00,6,15,-14,25,-49,51
10041,-1,27,1,08,-9,70,12,70,-10,80,-48,50,7,13,-13,74,-49,36
10058,-1,27,1,08,-9,70,12,70,-10,80,-48,50,7,97,-13,30,-49,23
10077,-0,29,1,37,-10,49,2,90,-13,70,-52,45,7,21,-13,36,-49,71
10096,-0,29,0,29,-9,70,2,90,-2,90,-48,50,6,56,-11,79,-49,53
10113,0,20,0,29,-9,70,-2,00,-2,90,-48,50,5,28,-10,45,-49,38
10129,0,20,0,29,-9,70,-2,00,-2,90,-48,50,4,18,-9,32,-49,24
10145,0,20,0,29,-9,70,-2,00,-2,90,-48,50,3,26,-8,36,-49,13
10161,-1,27,0,78,-10,29,12,70,-7,80,-51,45,4,67,-8,27,-49,48
10178,-1,27,0,78,-10,29,12,70,-7,80,-51,45,5,88,-8,20,-49,78
10198,-0,59,1,47,-10,39,5,90,-14,70,-51,95,5,88,-9,18,-50,10
10215,-0,59,0,00,-8,62,5,90,-0,00,-43,10,5,88,-7,80,-49,05
10231,0,20,0,00,-8,62,-2,00,-0,00,-43,10,4,70,-6,63,-48,16
10247,0,20,0,39,-10,29,-2,00,-3,90,-51,45,3,69,-6,22,-48,65
10264,-1,27,0,39,-10,29,12,70,-3,90,-51,45,5,04,-5,87,-49,07
10287,0,29,2,94,-10,19,-2,90,-29,40,-50,95,3,85,-9,40,-49,35
10306,0,29,1,18,-15,29,-2,90,-11,80,-76,45,2,84,-9,76,-53,42
10327,-0,29,1,18,-15,29,2,90,-11,80,-76,45,2,84,-10,07,-56,87
10348,-2,16,2,65,-14,90,21,60,-26,50,-74,50,5,65,-12,53,-59,52
10366,-2,16,0,88,-13,52,21,60,-8,80,-67,60,8,04,-11,97,-60,73
10382,-2,94,0,88,-13,52,29,40,-8,80,-67,60,11,25,-11,50,-61,76
10400,-2,94,0,20,-14,11,29,40,-2,00,-70,55,13,97,-10,07,-63,08
10419,-2,94,0,20,-14,11,29,40,-2,00,-70,55,16,29,-8,86,-64,20
10437,-4,21,-2,45,-12,94,42,10,24,50,-64,70,20,16,-3,86,-64,27
10454,-4,21,-2,45,-12,74,42,10,24,50,-63,70,23,45,0,40,-64,19
10471,-6,37,-1,96,-12,74,63,70,19,60,-63,70,29,49,3,28,-64,11
10488,-6,37,-2,55,-8,53,63,70,25,50,-42,65,34,62,6,61,-60,90
10504,-5,10,-2,55,-8,53,51,00,25,50,-42,65,37,08,9,44,-58,16
10525,-5,88,-2,74,-6,76,58,80,27,40,-33,80,40,33,12,14,-54,50
10542,-5,88,-2,74,-6,76,58,80,27,40,-33,80,43,10,14,43,-51,40
10558,-5,88,-2,74,-6,76,58,80,27,40,-33,80,45,46,16,37,-48,76
10575,-5,88,-2,74,-6,17,58,80,27,40,-30,85,47,46,18,03,-46,07
10596,-1,96,-0,88,-6,17,19,60,8,80,-30,85,43,28,16,64,-43,79
10614,-0,59,1,67,-5,29,5,90,-16,70,-26,45,37,67,11,64,-41,19
10632,-0,59,1,67,-2,25,5,90,-16,70,-11,25,32,91,7,39,-36,70
10649,4,51,3,72,-2,25,-45,10,-37,20,-11,25,21,21,0,70,-32,88
10665,4,51,3,72,-6,76,-45,10,-37,20,-33,80,11,26,-4,98,-33,02
10682,-2,16,2,06,-6,76,21,60,-20,60,-33,80,12,81,-7,33,-33,14
10699,-2,16,3,82,-7,45,21,60,-38,20,-37,25,14,13,-11,96,-33,75
10715,2,45,3,82,-7,45,-24,50,-38,20,-37,25,8,34,-15,89,-34,28
10733,2,74,5,68,-8,92,-27,40,-56,80,-44,60,2,97,-22,03,-35,83
10751,2,74,5,68,-10,68,-27,40,-56,80,-53,40,-1,58,-27,25,-38,46
10772,0,88,5,49,-10,68,-8,80,-54,90,-53,40,-2,66,-31,39,-40,70
10788,0,88,5,98,-11,27,-8,80,-59,80,-56,35,-3,58,-35,65,-43,05
10804,1,96,5,98,-11,27,-19,60,-59,80,-56,35,-5,99,-39,28,-45,04
10821,2,35,5,88,-8,72,-23,50,-58,80,-43,60,-8,61,-42,20,-44,83
10838,2,35,5,88,-8,72,-23,50,-58,80,-43,60,-10,85,-44,69,-44,64
10857,0,78,5,29,-8,92,-7,80,-52,90,-44,60,-10,39,-45,92,-44,64
10875,0,78,5,29,-11,86,-7,80,-52,90,-59,30,-10,00,-46,97,-46,84
10891,-0,20,3,72,-11,86,2,00,-37,20,-59,30,-8,20,-45,51,-48,71
10907,-0,20,3,04,-11,37,2,00,-30,40,-56,85,-6,67,-43,24,-49,93
10923,1,57,3,04,-11,37,-15,70,-30,40,-56,85,-8,03,-41,31,-50,97
10939,1,57,1,86,-10,58,-15,70,-18,60,-52,90,-9,18,-37,91,-51,26
10955,-0,49,1,86,-10,58,4,90,-18,60,-52,90,-7,07,-35,01,-51,51
10971,-0,49,1,86,-10,58,4,90,-18,60,-52,90,-5,27,-32,55,-51,71
10988,-0,49,1,86,-10,58,4,90,-18,60,-52,90,-3,74,-30,46,-51,89
11004,0,00,2,45,-9,60,-0,00,-24,50,-48,00,-3,18,-29,56,-51,31
11022,0,00,2,45,-11,07,-0,00,-24,50,-55,35,-2,71,-28,80,-51,91
11043,-0,20,2,25,-11,07,2,00,-22,50,-55,35,-2,00,-27,86,-52,43
11062,-0,20,1,86,-10,39,2,00,-18,60,-51,95,-1,40,-26,47,-52,36
11082,0,20,1,86,-9,51,-2,00,-18,60,-47,55,-1,49,-25,29,-51,64
11100,0,20,2,16,-9,51,-2,00,-21,60,-47,55,-1,57,-24,74,-51,02
11117,0,20,2,74,-11,37,-2,00,-27,40,-56,85,-1,63,-25,14,-51,90
11139,-0,20,2,74,-11,37,2,00,-27,40,-56,85,-1,09,-25,48,-52,64
11157,-1,08,1,76,-9,41,10,80,-17,60,-47,05,0,70,-24,29,-51,80
11174,-1,08,1,76,-10,58,10,80,-17,60,-52,90,2,21,-23,29,-51,97
11193,0,49,2,25,-10,58,-4,90,-22,50,-52,90,1,15,-23,17,-52,11
11209,0,49,0,59,-9,80,-4,90,-5,90,-49,00,0,24,-20,58,-51,64
11225,-1,37,0,59,-9,80,13,70,-5,90,-49,00,2,26,-18,38,-51,24
11241,-0,29,1,08,-10,00,2,90,-10,80,-50,00,2,35,-17,24,-51,06
11257,-0,29,1,08,-10,00,2,90,-10,80,-50,00,2,44,-16,28,-50,90
11273,-0,20,1,57,-10,58,2,00,-15,70,-52,90,2,37,-16,19,-51,20
11289,-0,20,1,57,-10,58,2,00,-15,70,-52,90,2,31,-16,12,-51,45
11307,9,11,-1,76,-5,29,-91,10,17,60,-26,45,-11,70,-11,06,-47,70
11324,9,11,-1,76,-10,39,-91,10,17,60,-51,95,-23,61,-6,76,-48,34
11340,-1,86,1,08,-10,39,18,60,-10,80,-51,95,-17,28,-7,37,-48,88
11356,-1,86,0,88,-10,19,18,60,-8,80,-50,95,-11,90,-7,58,-49,19
11372,0,49,0,88,-10,19,-4,90,-8,80,-50,95,-10,85,-7,76,-49,46
11388,0,49,0,88,-10,19,-4,90,-8,80,-50,95,-9,95,-7,92,-49,68
11407,0,49,0,88,-10,19,-4,90,-8,80,-50,95,-9,20,-8,05,-49,87
11424,0,00,0,69,-10,09,-0,00,-6,90,-50,45,-7,82,-7,88,-49,96
11441,0,00,0,69,-10,00,-0,00,-6,90,-50,00,-6,64,-7,73,-49,96
11457,0,29,0,78,-10,00,-2,90,-7,80,-50,00,-6,08,-7,73,-49,96
11473,0,29,0,78,-10,09,-2,90,-7,80,-50,45,-5,61,-7,73,-50,03
11489,0,20,0,69,-10,09,-2,00,-6,90,-50,45,-5,06,-7,61,-50,09
11509,0,20,0,69,-10,29,-2,00,-6,90,-51,45,-4,60,-7,50,-50,30
11528,0,29,0,78,-10,29,-2,90,-7,80,-51,45,-4,35,-7,55,-50,47
11552,0,20,0,69,-10,09,-2,00,-6,90,-50,45,-4,00,-7,45,-50,47
11574,0,29,0,69,-10,09,-2,90,-6,90,-50,45,-3,83,-7,37,-50,47
11599,0,29,0,69,-17,93,-2,90,-6,90,-89,65,-3,69,-7,30,-56,35
11618,0,00,6,17,-17,93,-0,00,-61,70,-89,65,-3,14,-15,46,-61,34
11637,0,29,0,10,-10,19,-2,90,-1,00,-50,95,-3,10,-13,29,-59,78
11658,0,29,0,10,-10,00,-2,90,-1,00,-50,00,-3,07,-11,45,-58,32
11678,0,00,0,10,-10,00,-0,00,-1,00,-50,00,-2,61,-9,88,-57,07
11694,0,00,0,39,-10,29,-0,00,-3,90,-51,45,-2,22,-8,98,-56,23
11710,0,00,0,39,-10,29,-0,00,-3,90,-51,45,-1,89,-8,22,-55,51
11726,0,78,-0,39,-10,39,-7,80,3,90,-51,95,-2,77,-6,40,-54,98
11744,0,78,-0,39,-10,19,-7,80,3,90,-50,95,-3,53,-4,86,-54,37
11762,0,78,-0,69,-10,19,-7,80,6,90,-50,95,-4,17,-3,09,-53,86
11783,0,78,-0,29,-9,90,-7,80,2,90,-49,50,-4,71,-2,19,-53,20
11803,0,20,-0,29,-9,90,-2,00,2,90,-49,50,-4,31,-1,43,-52,65
11828,0,49,-0,78,-9,90,-4,90,7,80,-49,50,-4,40,-0,05,-52,18
11844,0,49,-0,78,-9,90,-4,90,7,80,-49,50,-4,47,1,13,-51,78
11865,0,49,-0,78,-10,49,-4,90,7,80,-52,45,-4,54,2,13,-51,88
11887,1,27,-1,27,-10,49,-12,70,12,70,-52,45,-5,76,3,72,-51,96
11908,-0,49,-0,29,-9,90,4,90,2,90,-49,50,-4,16,3,59,-51,59
11927,-0,49,0,78,-10,29,4,90,-7,80,-51,45,-2,80,1,89,-51,59
11950,0,29,0,78,-10,29,-2,90,-7,80,-51,45,-2,80,0,43,-51,59
11970,1,57,0,98,-10,29,-15,70,-9,80,-51,45,-4,74,-1,10,-51,59
11996,1,57,0,78,-10,00,-15,70,-7,80,-50,00,-6,38,-2,11,-51,35
12018,0,00,0,78,-10,29,-0,00,-7,80,-51,45,-5,42,-2,96,-51,35
12038,-0,20,2,65,-10,29,2,00,-26,50,-51,45,-4,31,-6,49,-51,35
12058,1,08,2,45,-9,90,-10,80,-24,50,-49,50,-5,28,-9,19,-51,08
12075,1,08,2,45,-10,00,-10,80,-24,50,-50,00,-6,11,-11,49,-50,91
12100,-0,59,1,27,-10,09,5,90,-12,70,-50,45,-4,31,-11,67,-50,84
12118,-0,20,0,69,-10,09,2,00,-6,90,-50,45,-3,36,-10,96,-50,79
12138,-0,20,0,88,-9,90,2,00,-8,80,-49,50,-2,56,-10,63,-50,59
12158,0,49,0,88,-9,90,-4,90,-8,80,-49,50,-2,91,-10,36,-50,43
12175,-0,20,0,69,-10,09,2,00,-6,90,-50,45,-2,17,-9,84,-50,43
12195,-0,20,0,69,-10,00,2,00,-6,90,-50,00,-1,55,-9,40,-50,36
12212,0,20,1,57,-10,00,-2,00,-15,70,-50,00,-1,62,-10,34,-50,31
12229,0,20,2,16,-10,09,-2,00,-21,60,-50,45,-1,67,-12,03,-50,31
12245,0,20,2,16,-10,09,-2,00,-21,60,-50,45,-1,72,-13,47,-50,31
12261,0,20,2,16,-10,09,-2,00,-21,60,-50,45,-1,76,-14,69,-50,31
12277,0,20,2,16,-10,09,-2,00,-21,60,-50,45,-1,80,-15,72,-50,31
12293,-1,57,0,98,-11,07,15,70,-9,80,-55,35,0,83,-14,84,-51,07
12309,-1,57,0,98,-11,07,15,70,-9,80,-55,35,3,06,-14,08,-51,71
12332,0,78,1,08,-10,19,-7,80,-10,80,-50,95,1,43,-13,59,-51,59
12353,0,78,0,59,-10,00,-7,80,-5,90,-50,00,0,04,-12,43,-51,36
12376,0,20,0,59,-10,09,-2,00,-5,90,-50,45,-0,26,-11,45,-51,22
12396,0,20,0,39,-10,09,-2,00,-3,90,-50,45,-0,52,-10,32,-51,10
12416,0,20,0,39,-10,09,-2,00,-3,90,-50,45,-0,74,-9,36,-51,01
12434,0,20,0,39,-10,29,-2,00,-3,90,-51,45,-0,93,-8,54,-51,07
12460,0,20,0,78,-10,29,-2,00,-7,80,-51,45,-1,09,-8,43,-51,13
12484,0,20,0,69,-10,09,-2,00,-6,90,-50,45,-1,23,-8,20,-51,03
12506,0,20,0,59,-10,00,-2,00,-5,90,-50,00,-1,34,-7,85,-50,87
12526,0,20,0,69,-10,09,-2,00,-6,90,-50,45,-1,44,-7,71,-50,81
12543,0,20,0,69,-10,09,-2,00,-6,90,-50,45,-1,53,-7,59,-50,76
12561,0,20,0,69,-10,09,-2,00,-6,90,-50,45,-1,60,-7,49,-50,71
12580,0,20,0,69,-10,09,-2,00,-6,90,-50,45,-1,66,-7,40,-50,67
12602,0,20,0,69,-10,09,-2,00,-6,90,-50,45,-1,71,-7,32,-50,64
12618,0,20,0,69,-10,09,-2,00,-6,90,-50,45,-1,75,-7,26,-50,64
12638,0,20,0,69,-10,09,-2,00,-6,90,-50,45,-1,79,-7,21,-50,64
12661,0,20,0,69,-10,09,-2,00,-6,90,-50,45,-1,82,-7,16,-50,64
12678,0,20,0,69,-10,09,-2,00,-6,90,-50,45,-1,82,-7,12,-50,64
12694,0,20,0,69,-10,09,-2,00,-6,90,-50,45,-1,82,-7,09,-50,64
12710,0,20,0,49,-10,19,-2,00,-4,90,-50,95,-1,82,-6,76,-50,68
12725,0,20,0,49,-10,19,-2,00,-4,90,-50,95,-1,82,-6,48,-50,72
12741,0,20,0,49,-10,19,-2,00,-4,90,-50,95,-1,82,-6,24,-50,76
12757,0,20,0,49,-10,19,-2,00,-4,90,-50,95,-1,82,-6,04,-50,76
12773,0,20,0,69,-10,09,-2,00,-6,90,-50,45,-1,82,-6,17,-50,71
12791,0,20,0,69,-10,09,-2,00,-6,90,-50,45,-1,82,-6,28,-50,67
12807,0,20,0,69,-10,09,-2,00,-6,90,-50,45,-1,82,-6,37,-50,64
12823,0,20,0,69,-10,09,-2,00,-6,90,-50,45,-1,82,-6,45,-50,64
12839,0,20,0,69,-10,09,-2,00,-6,90,-50,45,-1,82,-6,52,-50,64
12855,0,20,0,69,-10,09,-2,00,-6,90,-50,45,-1,82,-6,58,-50,64
12871,0,20,0,69,-10,09,-2,00,-6,90,-50,45,-1,82,-6,62,-50,64
12889,0,20,0,69,-10,09,-2,00,-6,90,-50,45,-1,82,-6,67,-50,64
12906,0,20,0,69,-10,09,-2,00,-6,90,-50,45,-1,82,-6,70,-50,64
12925,0,20,0,69,-10,09,-2,00,-6,90,-50,45,-1,82,-6,70,-50,64
12947,0,20,0,69,-10,19,-2,00,-6,90,-50,95,-1,82,-6,70,-50,69
12965,0,29,0,49,-10,19,-2,90,-4,90,-50,95,-1,98,-6,43,-50,73
12985,0,20,0,69,-10,09,-2,00,-6,90,-50,45,-1,98,-6,50,-50,68
13004,0,20,0,69,-10,09,-2,00,-6,90,-50,45,-1,98,-6,56,-50,65
13021,0,20,0,69,-10,09,-2,00,-6,90,-50,45,-1,98,-6,61,-50,65
13040,0,20,0,69,-10,09,-2,00,-6,90,-50,45,-1,98,-6,66,-50,65
13060,0,20,0,69,-10,09,-2,00,-6,90,-50,45,-1,98,-6,69,-50,65
13078,0,20,0,69,-10,09,-2,00,-6,90,-50,45,-1,98,-6,72,-50,65
13099,0,20,0,69,-10,09,-2,00,-6,90,-50,45,-1,98,-6,72,-50,65
13116,0,20,0,39,-10,09,-2,00,-3,90,-50,45,-1,98,-6,30,-50,65
13138,0,20,0,49,-10,19,-2,00,-4,90,-50,95,-1,98,-6,09,-50,69
13155,0,20,0,59,-10,00,-2,00,-5,90,-50,00,-1,98,-6,09,-50,59
13172,0,20,0,59,-10,00,-2,00,-5,90,-50,00,-1,98,-6,09,-50,50
13192,0,29,0,69,-10,09,-2,90,-6,90,-50,45,-2,12,-6,21,-50,50
13216,0,29,0,69,-10,09,-2,90,-6,90,-50,45,-2,24,-6,31,-50,50
13244,0,20,0,69,-10,09,-2,00,-6,90,-50,45,-2,20,-6,40,-50,50
13267,0,20,0,69,-10,09,-2,00,-6,90,-50,45,-2,17,-6,48,-50,50
13288,0,20,0,69,-10,09,-2,00,-6,90,-50,45,-2,17,-6,54,-50,50
13311,0,20,0,69,-10,09,-2,00,-6,90,-50,45,-2,17,-6,59,-50,50
13331,0,20,0,69,-10,00,-2,00,-6,90,-50,00,-2,17,-6,64,-50,43
13353,0,20,0,59,-10,00,-2,00,-5,90,-50,00,-2,17,-6,53,-50,36
13374,0,29,0,49,-10,19,-2,90,-4,90,-50,95,-2,28,-6,28,-50,45
13392,0,29,0,49,-10,09,-2,90,-4,90,-50,45,-2,37,-6,08,-50,45
13410,0,20,0,39,-10,09,-2,00,-3,90,-50,45,-2,32,-5,75,-50,45
13429,0,00,0,59,-10,00,-0,00,-5,90,-50,00,-1,97,-5,75,-50,38
13446,0,00,0,59,-10,00,-0,00,-5,90,-50,00,-1,67,-5,75,-50,33
13463,0,20,0,49,-10,19,-2,00,-4,90,-50,95,-1,72,-5,62,-50,42
13482,0,20,0,49,-10,09,-2,00,-4,90,-50,45,-1,76,-5,51,-50,42
13500,0,20,0,69,-10,09,-2,00,-6,90,-50,45,-1,80,-5,72,-50,42
13517,0,20,0,69,-10,09,-2,00,-6,90,-50,45,-1,80,-5,90,-50,42
13541,0,20,0,69,-10,09,-2,00,-6,90,-50,45,-1,80,-6,05,-50,42
13560,0,20,0,78,-10,29,-2,00,-7,80,-51,45,-1,80,-6,31,-50,57
13577,0,20,0,39,-10,09,-2,00,-3,90,-50,45,-1,80,-5,95,-50,57
13598,0,20,0,39,-10,09,-2,00,-3,90,-50,45,-1,80,-5,64,-50,57
13620,0,20,0,39,-10,09,-2,00,-3,90,-50,45,-1,80,-5,38,-50,57
13641,0,20,0,59,-10,39,-2,00,-5,90,-51,95,-1,80,-5,46,-50,78
13662,0,20,0,59,-10,00,-2,00,-5,90,-50,00,-1,80,-5,53,-50,66
13678,0,20,0,59,-10,00,-2,00,-5,90,-50,00,-1,80,-5,58,-50,56
13694,0,20,0,59,-10,00,-2,00,-5,90,-50,00,-1,80,-5,63,-50,48
13711,0,20,0,78,-10,00,-2,00,-7,80,-50,00,-1,80,-5,95,-50,41
13729,0,20,0,69,-10,09,-2,00,-6,90,-50,45,-1,80,-6,10,-50,41
13747,0,20,0,69,-10,09,-2,00,-6,90,-50,45,-1,80,-6,22,-50,41
13771,0,20,0,49,-9,90,-2,00,-4,90,-49,50,-1,80,-6,02,-50,27
13788,0,20,0,69,-10,09,-2,00,-6,90,-50,45,-1,80,-6,15,-50,27
13806,0,29,0,69,-10,09,-2,90,-6,90,-50,45,-1,97,-6,26,-50,27
13823,0,20,0,59,-10,00,-2,00,-5,90,-50,00,-1,97,-6,21,-50,23
13842,0,20,0,59,-10,09,-2,00,-5,90,-50,45,-1,97,-6,16,-50,26
13862,0,29,0,69,-10,09,-2,90,-6,90,-50,45,-2,11,-6,27,-50,26
13878,0,29,0,59,-10,00,-2,90,-5,90,-50,00,-2,22,-6,22,-50,22
13894,0,29,0,59,-10,00,-2,90,-5,90,-50,00,-2,33,-6,17,-50,19
13910,0,20,0,69,-10,09,-2,00,-6,90,-50,45,-2,28,-6,28,-50,23
13928,0,20,0,69,-10,09,-2,00,-6,90,-50,45,-2,24,-6,37,-50,26
13944,0,20,0,49,-10,49,-2,00,-4,90,-52,45,-2,20,-6,15,-50,59
13963,0,20,0,49,-10,49,-2,00,-4,90,-52,45,-2,17,-5,96,-50,87
13988,0,20,0,49,-10,49,-2,00,-4,90,-52,45,-2,17,-5,80,-51,11
14007,0,29,0,59,-10,00,-2,90,-5,90,-50,00,-2,28,-5,80,-50,94
14030,0,29,0,69,-10,09,-2,90,-6,90,-50,45,-2,37,-5,97,-50,87
14052,0,20,0,69,-10,09,-2,00,-6,90,-50,45,-2,32,-6,11,-50,80
14069,0,20,0,69,-10,09,-2,00,-6,90,-50,45,-2,27,-6,23,-50,75
14092,0,20,0,59,-10,00,-2,00,-5,90,-50,00,-2,23,-6,18,-50,64
14108,0,20,0,59,-10,00,-2,00,-5,90,-50,00,-2,19,-6,14,-50,54
14126,0,20,0,59,-10,00,-2,00,-5,90,-50,00,-2,19,-6,10,-50,46
14143,0,20,0,59,-10,09,-2,00,-5,90,-50,45,-2,19,-6,07,-50,46
14159,0,20,0,69,-10,09,-2,00,-6,90,-50,45,-2,19,-6,20,-50,46
14179,0,20,0,69,-10,09,-2,00,-6,90,-50,45,-2,19,-6,30,-50,46
14197,0,20,0,69,-10,09,-2,00,-6,90,-50,45,-2,19,-6,39,-50,46
14217,0,20,0,69,-10,09,-2,00,-6,90,-50,45,-2,19,-6,47,-50,46
14241,0,20,0,69,-10,09,-2,00,-6,90,-50,45,-2,19,-6,53,-50,46
14260,0,20,0,69,-10,00,-2,00,-6,90,-50,00,-2,19,-6,59,-50,39
14276,0,20,0,59,-10,00,-2,00,-5,90,-50,00,-2,19,-6,48,-50,33
14293,0,20,0,59,-10,09,-2,00,-5,90,-50,45,-2,19,-6,40,-50,33
14312,0,20,0,69,-10,09,-2,00,-6,90,-50,45,-2,19,-6,47,-50,33
14331,0,20,0,59,-10,39,-2,00,-5,90,-51,95,-2,19,-6,39,-50,58
14351,0,20,0,59,-10,00,-2,00,-5,90,-50,00,-2,19,-6,31,-50,49
14373,0,29,0,59,-10,00,-2,90,-5,90,-50,00,-2,30,-6,25,-50,42
14389,0,29,0,59,-10,00,-2,90,-5,90,-50,00,-2,39,-6,20,-50,35
14407,0,29,0,59,-10,00,-2,90,-5,90,-50,00,-2,47,-6,15,-50,30
14423,0,20,0,78,-10,29,-2,00,-7,80,-51,45,-2,40,-6,40,-50,47
14440,0,20,0,78,-10,29,-2,00,-7,80,-51,45,-2,34,-6,61,-50,62
14457,0,20,0,49,-10,19,-2,00,-4,90,-50,95,-2,29,-6,35,-50,67
14474,0,20,0,49,-10,29,-2,00,-4,90,-51,45,-2,24,-6,14,-50,79
14491,0,29,0,78,-10,29,-2,90,-7,80,-51,45,-2,34,-6,39,-50,89
14507,0,29,0,69,-10,09,-2,90,-6,90,-50,45,-2,43,-6,46,-50,82
14522,0,29,0,69,-10,09,-2,90,-6,90,-50,45,-2,50,-6,53,-50,76
14538,0,29,0,49,-9,90,-2,90,-4,90,-49,50,-2,56,-6,28,-50,58
14555,0,20,0,49,-9,90,-2,00,-4,90,-49,50,-2,47,-6,08,-50,41
14571,0,20,0,69,-10,09,-2,00,-6,90,-50,45,-2,40,-6,20,-50,41
14587,0,20,0,69,-10,09,-2,00,-6,90,-50,45,-2,34,-6,30,-50,41
14603,0,20,0,39,-10,09,-2,00,-3,90,-50,45,-2,29,-5,94,-50,41
14620,0,20,0,39,-10,09,-2,00,-3,90,-50,45,-2,25,-5,64,-50,41
14637,0,20,0,49,-10,19,-2,00,-4,90,-50,95,-2,21,-5,53,-50,49
14654,0,20,0,49,-10,19,-2,00,-4,90,-50,95,-2,18,-5,43,-50,56
14670,0,29,0,49,-10,19,-2,90,-4,90,-50,95,-2,29,-5,35,-50,62
14691,0,20,0,69,-10,09,-2,00,-6,90,-50,45,-2,24,-5,59,-50,62
14707,0,20,0,69,-10,09,-2,00,-6,90,-50,45,-2,21,-5,78,-50,62
14728,0,20,0,69,-10,09,-2,00,-6,90,-50,45,-2,18,-5,95,-50,62
14744,0,20,0,69,-10,19,-2,00,-6,90,-50,95,-2,18,-6,09,-50,67
14759,0,20,0,49,-10,19,-2,00,-4,90,-50,95,-2,18,-5,91,-50,71
14775,0,20,0,69,-10,09,-2,00,-6,90,-50,45,-2,18,-6,06,-50,67
14791,0,29,0,69,-10,09,-2,90,-6,90,-50,45,-2,28,-6,19,-50,64
14807,0,29,0,69,-10,09,-2,90,-6,90,-50,45,-2,38,-6,29,-50,64
14823,0,29,0,69,-10,09,-2,90,-6,90,-50,45,-2,46,-6,39,-50,64
14839,0,29,0,78,-10,29,-2,90,-7,80,-51,45,-2,52,-6,60,-50,76
14856,0,20,0,78,-10,29,-2,00,-7,80,-51,45,-2,44,-6,78,-50,86
14872,0,20,0,59,-10,00,-2,00,-5,90,-50,00,-2,38,-6,65,-50,73
14888,0,20,0,59,-10,00,-2,00,-5,90,-50,00,-2,32,-6,53,-50,62
14904,0,20,0,69,-10,09,-2,00,-6,90,-50,45,-2,27,-6,59,-50,62
14927,0,20,0,69,-10,00,-2,00,-6,90,-50,00,-2,23,-6,64,-50,53
14947,0,20,0,59,-10,00,-2,00,-5,90,-50,00,-2,20,-6,53,-50,45
14963,0,20,0,69,-10,09,-2,00,-6,90,-50,45,-2,20,-6,58,-50,45
14979,0,20,0,69,-10,09,-2,00,-6,90,-50,45,-2,20,-6,63,-50,45
14997,0,20,0,69,-10,09,-2,00,-6,90,-50,45,-2,20,-6,67,-50,45
15013,0,20,0,69,-10,00,-2,00,-6,90,-50,00,-2,20,-6,70,-50,38
15031,0,20,0,59,-10,00,-2,00,-5,90,-50,00,-2,20,-6,58,-50,33
15058,0,20,0,69,-10,09,-2,00,-6,90,-50,45,-2,20,-6,63,-50,33
15077,0,20,0,69,-10,09,-2,00,-6,90,-50,45,-2,20,-6,67,-50,33
15100,0,20,0,69,-10,09,-2,00,-6,90,-50,45,-2,20,-6,71,-50,33
15123,0,20,0,49,-10,19,-2,00,-4,90,-50,95,-2,20,-6,43,-50,42
15141,0,20,0,69,-10,09,-2,00,-6,90,-50,45,-2,20,-6,50,-50,42
15163,0,20,0,69,-10,09,-2,00,-6,90,-50,45,-2,20,-6,56,-50,42
15190,0,20,0,69,-10,09,-2,00,-6,90,-50,45,-2,20,-6,61,-50,42
15211,0,20,0,69,-10,09,-2,00,-6,90,-50,45,-2,20,-6,66,-50,42
15227,0,20,0,69,-10,09,-2,00,-6,90,-50,45,-2,20,-6,69,-50,42
15253,0,20,0,69,-10,09,-2,00,-6,90,-50,45,-2,20,-6,72,-50,42
15275,0,20,0,69,-10,09,-2,00,-6,90,-50,45,-2,20,-6,72,-50,42
15300,0,20,0,69,-10,09,-2,00,-6,90,-50,45,-2,20,-6,72,-50,42
15377,0,20,0,49,-9,90,-2,00,-4,90,-49,50,-2,20,-6,45,-50,28
15413,0,20,0,59,-10,00,-2,00,-5,90,-50,00,-2,20,-6,37,-50,24
15452,0,20,0,69,-10,09,-2,00,-6,90,-50,45,-2,20,-6,45,-50,27
15496,0,20,0,69,-10,29,-2,00,-6,90,-51,45,-2,20,-6,52,-50,45
15568,-0,59,0,39,-10,39,5,90,-3,90,-51,95,-0,98,-6,12,-50,67
15608,0,78,1,08,-10,00,-7,80,-10,80,-50,00,-2,01,-6,82,-50,57
15631,0,20,0,49,-10,19,-2,00,-4,90,-50,95,-2,01,-6,54,-50,63
15682,0,20,0,88,-9,90,-2,00,-8,80,-49,50,-2,01,-6,88,-50,46
15717,0,88,0,88,-9,90,-8,80,-8,80,-49,50,-3,02,-7,16,-50,32
15740,0,29,0,88,-10,19,-2,90,-8,80,-50,95,-3,02,-7,41,-50,41
15791,-0,20,0,88,-10,39,2,00,-8,80,-51,95,-2,27,-7,62,-50,64
15886,0,59,-0,39,-11,56,-5,90,3,90,-57,80,-2,82,-5,89,-51,72
15911,-0,49,1,08,-10,00,4,90,-10,80,-50,00,-1,66,-6,63,-51,46
15928,0,59,1,27,-10,00,-5,90,-12,70,-50,00,-2,29,-7,54,-51,24
16071,1,08,-1,67,-11,27,-10,80,16,70,-56,35,-3,57,-3,90,-52,01
16106,-1,37,-1,57,-14,60,13,70,15,70,-73,00,-0,98,-0,96,-55,16
16135,-1,37,-2,74,-13,82,13,70,27,40,-69,10,1,22,3,29,-57,25
16155,-0,88,-3,04,-12,45,8,80,30,40,-62,25,2,36,7,36,-58,00
16173,-0,78,-3,04,-12,45,7,80,30,40,-62,25,3,18,10,81,-58,64
16190,-0,78,-3,53,-10,98,7,80,35,30,-54,90,3,87,14,49,-58,07
16207,0,78,-3,53,-10,98,-7,80,35,30,-54,90,2,12,17,61,-57,60
16226,0,00,-2,35,-9,60,-0,00,23,50,-48,00,1,80,18,49,-56,16
16245,0,00,-2,35,-8,33,-0,00,23,50,-41,65,1,53,19,24,-53,98
16262,-0,29,-1,67,-8,33,2,90,16,70,-41,65,1,74,18,86,-52,13
16282,0,78,-1,27,-4,70,-7,80,12,70,-23,50,0,31,17,94,-47,84
16303,0,78,-1,27,-5,00,-7,80,12,70,-25,00,-0,91,17,15,-44,41
16326,0,49,-0,88,-5,00,-4,90,8,80,-25,00,-1,51,15,90,-41,50
16352,0,88,0,59,-6,76,-8,80,-5,90,-33,80,-2,60,12,63,-40,35
16373,-0,29,0,20,-8,13,2,90,-2,00,-40,65,-1,78,10,44,-40,39
16391,-0,29,0,20,-8,13,2,90,-2,00,-40,65,-1,08,8,57,-40,43
16408,-0,29,0,20,-8,13,2,90,-2,00,-40,65,-0,48,6,98,-40,46
16427,-0,29,0,20,-6,27,2,90,-2,00,-31,35,0,03,5,64,-39,10
16444,-0,78,4,51,-6,27,7,80,-45,10,-31,35,1,19,-1,97,-37,93
16459,-0,78,2,74,-5,68,7,80,-27,40,-28,40,2,18,-5,79,-36,50
16478,1,08,2,74,-5,68,-10,80,-27,40,-28,40,0,24,-9,03,-35,29
16496,1,96,3,33,-6,08,-19,60,-33,30,-30,40,-2,74,-12,67,-34,56
16516,1,96,3,33,-6,08,-19,60,-33,30,-30,40,-5,27,-15,76,-33,93
16540,1,96,3,33,-6,08,-19,60,-33,30,-30,40,-7,42,-18,39,-33,40
16567,3,53,0,49,-1,76,-35,30,-4,90,-8,80,-11,60,-16,37,-29,71
16589,-6,47,3,33,-22,93,64,70,-33,30,-114,65,-0,16,-18,91,-42,45
16610,-6,47,6,96,-17,74,64,70,-69,60,-88,70,9,57,-26,51,-49,39
16630,-3,23,6,96,-17,74,32,30,-69,60,-88,70,12,98,-32,98,-55,29
16647,-4,02,1,47,-11,07,40,20,-14,70,-55,35,17,06,-30,24,-55,29
16663,-4,02,1,47,-9,31,40,20,-14,70,-46,55,20,54,-27,90,-53,98
16679,-5,29,2,84,-9,31,52,90,-28,40,-46,55,25,39,-27,98,-52,86
16695,-5,29,2,84,-9,70,52,90,-28,40,-48,50,29,52,-28,04,-52,21
16712,-3,82,3,53,-9,70,38,20,-35,30,-48,50,30,82,-29,13,-51,65
16735,-0,88,4,21,-10,39,8,80,-42,10,-51,95,27,52,-31,08,-51,70
16754,-0,88,4,21,-8,92,8,80,-42,10,-44,60,24,71,-32,73,-50,63
16772,-1,86,3,23,-8,92,18,60,-32,30,-44,60,23,79,-32,67,-49,73
16791,-1,86,2,84,-9,11,18,60,-28,40,-45,55,23,01,-32,03,-49,10
16812,-3,72,2,84,-9,41,37,20,-28,40,-47,05,25,14,-31,48,-48,79
16830,-1,96,3,43,-9,41,19,60,-34,30,-47,05,24,31,-31,90,-48,53
16849,-1,96,3,63,-9,60,19,60,-36,30,-48,00,23,60,-32,56,-48,45
16867,-2,16,3,63,-9,60,21,60,-36,30,-48,00,23,30,-33,12,-48,38
16884,-2,35,3,53,-9,51,23,50,-35,30,-47,55,23,30,-33,45,-48,26
16900,-2,35,3,53,-9,51,23,50,-35,30,-47,55,23,30,-33,73,-48,15
16916,-2,16,3,14,-9,02,21,60,-31,40,-45,10,23,05,-33,38,-47,69
16932,-2,16,3,14,-9,02,21,60,-31,40,-45,10,22,83,-33,08,-47,31
16950,-2,16,3,14,-9,02,21,60,-31,40,-45,10,22,65,-32,83,-46,97
16970,-2,45,3,23,-9,11,24,50,-32,30,-45,55,22,92,-32,75,-46,76
16987,-2,45,3,23,-9,11,24,50,-32,30,-45,55,23,16,-32,68,-46,58
17004,-2,35,3,33,-9,31,23,50,-33,30,-46,55,23,21,-32,78,-46,58
17020,-2,35,3,33,-9,31,23,50,-33,30,-46,55,23,25,-32,85,-46,58
17047,-2,35,3,33,-9,31,23,50,-33,30,-46,55,23,29,-32,92,-46,58
17088,-2,35,3,33,-9,31,23,50,-33,30,-46,55,23,32,-32,98,-46,58
17184,-2,45,3,43,-9,21,24,50,-34,30,-46,05,23,50,-33,18,-46,50
17212,-2,35,3,33,-9,02,23,50,-33,30,-45,10,23,50,-33,18,-46,29
17235,-2,35,3,33,-9,31,23,50,-33,30,-46,55,23,50,-33,18,-46,33
17253,-2,45,3,33,-9,31,24,50,-33,30,-46,55,23,65,-33,18,-46,36
17270,-2,35,3,43,-9,21,23,50,-34,30,-46,05,23,65,-33,34,-46,32
17287,-2,35,3,43,-9,21,23,50,-34,30,-46,05,23,65,-33,49,-46,28
17303,-2,35,3,43,-9,21,23,50,-34,30,-46,05,23,65,-33,61,-46,24
17323,-2,35,3,43,-9,21,23,50,-34,30,-46,05,23,65,-33,71,-46,24
17349,-2,35,3,43,-9,21,23,50,-34,30,-46,05,23,65,-33,80,-46,24
17368,-2,35,3,43,-9,21,23,50,-34,30,-46,05,23,65,-33,88,-46,24
17388,-2,35,3,43,-9,21,23,50,-34,30,-46,05,23,65,-33,94,-46,24
17410,-2,35,3,43,-9,21,23,50,-34,30,-46,05,23,65,-33,99,-46,24
17430,-2,45,3,43,-9,21,24,50,-34,30,-46,05,23,78,-34,04,-46,24
17447,-2,45,3,63,-9,11,24,50,-36,30,-45,55,23,89,-34,38,-46,14
17466,-2,35,3,63,-9,11,23,50,-36,30,-45,55,23,83,-34,67,-46,05
17482,-2,35,3,43,-9,21,23,50,-34,30,-46,05,23,78,-34,61,-46,05
17503,-2,35,3,43,-9,21,23,50,-34,30,-46,05,23,74,-34,57,-46,05
17520,-2,45,3,43,-9,21,24,50,-34,30,-46,05,23,85,-34,53,-46,05
17539,-2,45,3,43,-9,21,24,50,-34,30,-46,05,23,95,-34,49,-46,05
17555,-2,35,3,43,-9,21,23,50,-34,30,-46,05,23,88,-34,49,-46,05
17575,-2,35,3,43,-9,21,23,50,-34,30,-46,05,23,82,-34,49,-46,05
17596,-2,35,3,43,-9,21,23,50,-34,30,-46,05,23,78,-34,49,-46,05
17614,-2,45,3,43,-9,21,24,50,-34,30,-46,05,23,88,-34,49,-46,05
17634,-2,35,3,63,-9,11,23,50,-36,30,-45,55,23,83,-34,76,-45,97
17671,-2,35,3,43,-9,21,23,50,-34,30,-46,05,23,78,-34,69,-45,97
17766,-2,35,3,43,-9,21,23,50,-34,30,-46,05,23,74,-34,63,-45,97
17787,-2,35,3,43,-9,21,23,50,-34,30,-46,05,23,70,-34,58,-45,97
17810,-2,35,3,43,-9,21,23,50,-34,30,-46,05,23,67,-34,54,-45,97
17834,-2,45,3,43,-9,21,24,50,-34,30,-46,05,23,79,-34,51,-45,97
17876,-2,45,3,43,-9,21,24,50,-34,30,-46,05,23,90,-34,47,-45,97
17898,-2,35,3,43,-9,21,23,50,-34,30,-46,05,23,84,-34,47,-45,97
17930,-2,35,3,43,-8,92,23,50,-34,30,-44,60,23,79,-34,47,-45,77
18033,-2,35,3,33,-9,21,23,50,-33,30,-46,05,23,75,-34,30,-45,81
18091,-2,35,3,43,-9,21,23,50,-34,30,-46,05,23,71,-34,30,-45,85
18162,-2,35,3,43,-9,21,23,50,-34,30,-46,05,23,68,-34,30,-45,88
18292,-2,45,3,43,-9,11,24,50,-34,30,-45,55,23,80,-34,30,-45,83
18467,-2,45,3,43,-9,11,24,50,-34,30,-45,55,23,91,-34,30,-45,79
18525,-2,35,3,63,-9,31,23,50,-36,30,-46,55,23,85,-34,60,-45,90
18666,-2,35,3,43,-9,11,23,50,-34,30,-45,55,23,79,-34,55,-45,85
18686,-2,35,3,63,-9,11,23,50,-36,30,-45,55,23,75,-34,82,-45,80
18708,-2,35,3,63,-9,11,23,50,-36,30,-45,55,23,71,-35,04,-45,77
18729,-2,35,3,63,-9,11,23,50,-36,30,-45,55,23,68,-35,23,-45,73
18746,-2,35,3,43,-9,21,23,50,-34,30,-46,05,23,68,-35,09,-45,78
18768,-2,35,3,43,-9,21,23,50,-34,30,-46,05,23,68,-34,97,-45,82
18785,-2,35,3,43,-9,21,23,50,-34,30,-46,05,23,68,-34,87,-45,86
18807,-2,35,3,72,-9,21,23,50,-37,20,-46,05,23,68,-35,22,-45,86
18834,-2,35,3,63,-9,11,23,50,-36,30,-45,55,23,68,-35,38,-45,81
18855,-2,35,3,63,-9,21,23,50,-36,30,-46,05,23,68,-35,52,-45,85
18885,-2,35,3,43,-9,21,23,50,-34,30,-46,05,23,68,-35,34,-45,88
18912,-2,35,3,43,-9,21,23,50,-34,30,-46,05,23,68,-35,18,-45,88
18931,-2,35,3,43,-9,21,23,50,-34,30,-46,05,23,68,-35,05,-45,88
18948,-2,35,3,63,-9,11,23,50,-36,30,-45,55,23,68,-35,24,-45,83
18966,-2,35,3,63,-9,11,23,50,-36,30,-45,55,23,68,-35,40,-45,79
18996,-2,35,3,43,-9,21,23,50,-34,30,-46,05,23,68,-35,23,-45,83
19014,-2,35,3,63,-9,11,23,50,-36,30,-45,55,23,68,-35,39,-45,78
19030,-2,35,3,63,-9,11,23,50,-36,30,-45,55,23,68,-35,53,-45,75
19046,-2,35,3,63,-9,11,23,50,-36,30,-45,55,23,68,-35,64,-45,75
19063,-2,35,3,63,-9,11,23,50,-36,30,-45,55,23,68,-35,74,-45,75
19079,-2,35,3,63,-9,11,23,50,-36,30,-45,55,23,68,-35,83,-45,75
19099,-2,35,3,63,-9,11,23,50,-36,30,-45,55,23,68,-35,90,-45,75
19117,-2,35,3,63,-9,11,23,50,-36,30,-45,55,23,68,-35,96,-45,75
19142,-2,35,3,33,-9,02,23,50,-33,30,-45,10,23,68,-35,56,-45,65
19160,-2,35,3,72,-9,21,23,50,-37,20,-46,05,23,68,-35,81,-45,71
19180,-2,35,3,72,-9,11,23,50,-37,20,-45,55,23,68,-36,01,-45,71
19199,-2,35,3,63,-9,11,23,50,-36,30,-45,55,23,68,-36,06,-45,71
19220,-2,35,3,63,-9,11,23,50,-36,30,-45,55,23,68,-36,09,-45,71
19236,-2,35,3,63,-9,11,23,50,-36,30,-45,55,23,68,-36,12,-45,71
19253,-2,35,3,63,-9,11,23,50,-36,30,-45,55,23,68,-36,12,-45,71
19271,-2,35,3,63,-9,11,23,50,-36,30,-45,55,23,68,-36,12,-45,71
19288,-2,35,3,63,-9,11,23,50,-36,30,-45,55,23,68,-36,12,-45,71
19304,-2,35,3,63,-9,11,23,50,-36,30,-45,55,23,68,-36,12,-45,71
19321,-2,35,3,63,-9,11,23,50,-36,30,-45,55,23,68,-36,12,-45,71
19340,-2,45,3,63,-9,11,24,50,-36,30,-45,55,23,80,-36,12,-45,71
19357,-2,45,3,63,-9,11,24,50,-36,30,-45,55,23,91,-36,12,-45,71
19376,-2,45,3,63,-9,11,24,50,-36,30,-45,55,24,00,-36,12,-45,71
19395,-2,45,3,63,-9,21,24,50,-36,30,-46,05,24,07,-36,12,-45,76
19413,-2,45,3,43,-9,21,24,50,-34,30,-46,05,24,14,-35,85,-45,81
19430,-2,45,3,63,-9,11,24,50,-36,30,-45,55,24,19,-35,92,-45,77
19447,-2,35,3,63,-9,11,23,50,-36,30,-45,55,24,09,-35,98,-45,73
19464,-2,35,3,63,-9,11,23,50,-36,30,-45,55,24,00,-36,02,-45,73
19479,-2,35,3,63,-9,11,23,50,-36,30,-45,55,23,92,-36,07,-45,73
19494,-2,35,3,53,-9,31,23,50,-35,30,-46,55,23,86,-35,95,-45,86
19511,-2,35,3,53,-9,31,23,50,-35,30,-46,55,23,81,-35,85,-45,96
19531,-2,35,3,43,-9,21,23,50,-34,30,-46,05,23,76,-35,62,-45,96
19547,-2,35,3,72,-9,21,23,50,-37,20,-46,05,23,72,-35,86,-45,96
19563,-2,35,3,72,-9,21,23,50,-37,20,-46,05,23,69,-36,06,-45,96
19582,-2,35,3,63,-9,11,23,50,-36,30,-45,55,23,69,-36,09,-45,90
19600,-2,35,3,63,-9,11,23,50,-36,30,-45,55,23,69,-36,13,-45,85
19623,-2,35,3,63,-9,11,23,50,-36,30,-45,55,23,69,-36,13,-45,80
19646,-2,35,3,63,-9,11,23,50,-36,30,-45,55,23,69,-36,13,-45,76
19663,-2,35,3,63,-9,11,23,50,-36,30,-45,55,23,69,-36,13,-45,73
19681,-2,35,3,63,-9,11,23,50,-36,30,-45,55,23,69,-36,13,-45,73
19697,-2,35,3,63,-9,11,23,50,-36,30,-45,55,23,69,-36,13,-45,73
19713,-2,35,3,63,-9,11,23,50,-36,30,-45,55,23,69,-36,13,-45,73
19734,-2,35,3,72,-9,21,23,50,-37,20,-46,05,23,69,-36,29,-45,78
19754,-2,35,3,72,-9,21,23,50,-37,20,-46,05,23,69,-36,42,-45,82
19776,-2,35,3,43,-9,21,23,50,-34,30,-46,05,23,69,-36,11,-45,85
19792,-2,45,3,72,-9,21,24,50,-37,20,-46,05,23,81,-36,27,-45,85
19808,-2,45,3,72,-9,21,24,50,-37,20,-46,05,23,91,-36,41,-45,85
19826,-2,35,3,63,-9,11,23,50,-36,30,-45,55,23,85,-36,41,-45,81
19842,-2,35,3,63,-9,21,23,50,-36,30,-46,05,23,80,-36,41,-45,85
19860,-2,45,3,43,-9,21,24,50,-34,30,-46,05,23,90,-36,09,-45,88
19878,-2,45,3,43,-9,21,24,50,-34,30,-46,05,23,99,-35,82,-45,88
19894,-2,45,3,43,-9,21,24,50,-34,30,-46,05,24,07,-35,60,-45,88
19914,-2,45,3,63,-9,11,24,50,-36,30,-45,55,24,13,-35,70,-45,83
19930,-2,35,3,63,-9,11,23,50,-36,30,-45,55,24,04,-35,79,-45,79
19946,-2,35,3,63,-9,11,23,50,-36,30,-45,55,23,96,-35,87,-45,75
19962,-2,35,3,63,-9,11,23,50,-36,30,-45,55,23,89,-35,93,-45,72
19978,-2,35,3,63,-9,11,23,50,-36,30,-45,55,23,83,-35,99,-45,72
19994,-2,35,3,63,-9,11,23,50,-36,30,-45,55,23,78,-36,03,-45,72
20013,-2,35,3,63,-9,11,23,50,-36,30,-45,55,23,74,-36,07,-45,72
20032,-2,35,3,72,-9,21,23,50,-37,20,-46,05,23,70,-36,24,-45,77
20052,-2,35,3,72,-9,11,23,50,-37,20,-45,55,23,67,-36,39,-45,74
20077,-2,35,3,63,-9,11,23,50,-36,30,-45,55,23,67,-36,39,-45,74
20104,-2,35,3,63,-9,11,23,50,-36,30,-45,55,23,67,-36,39,-45,74
20127,-2,35,3,63,-9,11,23,50,-36,30,-45,55,23,67,-36,39,-45,74
20149,-2,35,3,63,-8,92,23,50,-36,30,-44,60,23,67,-36,39,-45,57
20175,-2,35,3,53,-9,11,23,50,-35,30,-45,55,23,67,-36,22,-45,57
20210,-2,35,3,63,-9,11,23,50,-36,30,-45,55,23,67,-36,22,-45,57
20234,-2,35,3,63,-8,92,23,50,-36,30,-44,60,23,67,-36,22,-45,42
20253,-2,45,3,53,-8,92,24,50,-35,30,-44,60,23,80,-36,08,-45,30
20273,-2,45,3,53,-8,92,24,50,-35,30,-44,60,23,90,-35,97,-45,19
20294,-2,45,3,53,-8,92,24,50,-35,30,-44,60,23,99,-35,87,-45,10
20314,-2,45,3,53,-8,92,24,50,-35,30,-44,60,24,07,-35,78,-45,03
20337,-2,35,3,43,-9,21,23,50,-34,30,-46,05,23,98,-35,56,-45,18
20359,-2,35,3,63,-9,11,23,50,-36,30,-45,55,23,91,-35,67,-45,24
20381,-2,35,3,63,-9,11,23,50,-36,30,-45,55,23,85,-35,77,-45,28
20401,-2,35,3,63,-9,11,23,50,-36,30,-45,55,23,80,-35,85,-45,32
20418,-2,35,3,63,-9,11,23,50,-36,30,-45,55,23,75,-35,91,-45,36
20437,-2,45,3,63,-9,11,24,50,-36,30,-45,55,23,86,-35,97,-45,36
20454,-2,35,3,63,-9,11,23,50,-36,30,-45,55,23,81,-36,02,-45,36
20473,-2,35,3,63,-9,11,23,50,-36,30,-45,55,23,76,-36,06,-45,36
20490,-2,35,3,63,-9,11,23,50,-36,30,-45,55,23,72,-36,10,-45,36
20506,-2,35,3,63,-9,11,23,50,-36,30,-45,55,23,69,-36,13,-45,36
20522,-2,35,3,63,-9,11,23,50,-36,30,-45,55,23,69,-36,13,-45,36
20542,-2,35,3,63,-9,11,23,50,-36,30,-45,55,23,69,-36,13,-45,36
20558,-2,35,3,63,-9,11,23,50,-36,30,-45,55,23,69,-36,13,-45,36
20574,-2,45,3,63,-9,11,24,50,-36,30,-45,55,23,81,-36,13,-45,36
20592,-2,45,3,63,-9,21,24,50,-36,30,-46,05,23,91,-36,13,-45,46
20610,-2,45,3,43,-9,21,24,50,-34,30,-46,05,24,00,-35,85,-45,55
20630,-2,45,3,43,-9,21,24,50,-34,30,-46,05,24,08,-35,62,-45,62
20651,-2,45,3,43,-9,11,24,50,-34,30,-45,55,24,14,-35,42,-45,62
20676,-2,35,3,63,-9,11,23,50,-36,30,-45,55,24,04,-35,55,-45,62
20698,-2,35,3,53,-8,92,23,50,-35,30,-44,60,23,96,-35,52,-45,47
20718,-2,35,3,63,-9,11,23,50,-36,30,-45,55,23,89,-35,63,-45,47
20743,-2,35,3,63,-9,11,23,50,-36,30,-45,55,23,83,-35,73,-45,47
20759,-2,35,3,63,-9,11,23,50,-36,30,-45,55,23,78,-35,82,-45,47
20775,-2,35,3,63,-9,31,23,50,-36,30,-46,55,23,74,-35,89,-45,63
20791,-2,35,3,82,-9,31,23,50,-38,20,-46,55,23,71,-36,24,-45,77
20810,-2,35,3,72,-9,21,23,50,-37,20,-46,05,23,67,-36,38,-45,81
20826,-2,45,3,72,-9,21,24,50,-37,20,-46,05,23,80,-36,50,-45,85
20842,-2,35,3,63,-9,11,23,50,-36,30,-45,55,23,75,-36,47,-45,80
20865,-2,35,3,63,-9,02,23,50,-36,30,-45,10,23,72,-36,47,-45,70
20881,-2,35,3,72,-9,02,23,50,-37,20,-45,10,23,68,-36,58,-45,61
20897,-2,35,3,63,-9,11,23,50,-36,30,-45,55,23,68,-36,54,-45,61
20914,-2,35,3,63,-9,11,23,50,-36,30,-45,55,23,68,-36,50,-45,61
20939,-2,35,3,63,-9,11,23,50,-36,30,-45,55,23,68,-36,47,-45,61
20965,-2,35,3,63,-9,11,23,50,-36,30,-45,55,23,68,-36,47,-45,61
20995,-2,35,3,72,-9,21,23,50,-37,20,-46,05,23,68,-36,58,-45,67
21019,-2,35,3,72,-9,21,23,50,-37,20,-46,05,23,68,-36,68,-45,73
21039,-2,35,3,72,-9,21,23,50,-37,20,-46,05,23,68,-36,75,-45,78
21057,-2,35,3,63,-9,11,23,50,-36,30,-45,55,23,68,-36,69,-45,74
21081,-2,35,3,63,-9,11,23,50,-36,30,-45,55,23,68,-36,63,-45,74
21100,-2,35,3,63,-9,11,23,50,-36,30,-45,55,23,68,-36,58,-45,74
21116,-2,45,3,63,-9,11,24,50,-36,30,-45,55,23,81,-36,54,-45,74
21138,-2,45,3,63,-9,11,24,50,-36,30,-45,55,23,91,-36,50,-45,74
21159,-2,45,3,63,-9,11,24,50,-36,30,-45,55,24,00,-36,47,-45,74
21176,-2,45,3,63,-9,11,24,50,-36,30,-45,55,24,07,-36,47,-45,74
21197,-2,45,3,63,-9,11,24,50,-36,30,-45,55,24,14,-36,47,-45,74
21213,-2,35,3,63,-9,11,23,50,-36,30,-45,55,24,04,-36,47,-45,74
21229,-2,35,3,63,-9,11,23,50,-36,30,-45,55,23,96,-36,47,-45,74
21245,-2,35,3,63,-9,11,23,50,-36,30,-45,55,23,89,-36,47,-45,74
21262,-2,45,3,63,-9,11,24,50,-36,30,-45,55,23,98,-36,47,-45,74
21278,-2,45,3,63,-9,11,24,50,-36,30,-45,55,24,06,-36,47,-45,74
21294,-2,35,3,72,-9,21,23,50,-37,20,-46,05,23,98,-36,58,-45,79
21312,-2,35,3,72,-9,21,23,50,-37,20,-46,05,23,90,-36,67,-45,83
21329,-2,35,3,72,-9,21,23,50,-37,20,-46,05,23,84,-36,75,-45,86
21348,-2,35,3,63,-9,11,23,50,-36,30,-45,55,23,79,-36,68,-45,82
21366,-2,35,3,63,-9,11,23,50,-36,30,-45,55,23,75,-36,63,-45,78
21383,-2,35,3,63,-9,11,23,50,-36,30,-45,55,23,71,-36,58,-45,74
21403,-2,35,3,63,-9,11,23,50,-36,30,-45,55,23,68,-36,54,-45,74
21420,-2,45,3,63,-9,11,24,50,-36,30,-45,55,23,80,-36,50,-45,74
21437,-2,45,3,63,-9,11,24,50,-36,30,-45,55,23,91,-36,47,-45,74
21453,-2,35,3,63,-9,11,23,50,-36,30,-45,55,23,85,-36,47,-45,74
21470,-2,35,3,63,-9,11,23,50,-36,30,-45,55,23,79,-36,47,-45,74
21486,-2,35,3,63,-9,11,23,50,-36,30,-45,55,23,75,-36,47,-45,74
21503,-2,35,3,63,-9,11,23,50,-36,30,-45,55,23,71,-36,47,-45,74
21520,-2,35,3,63,-9,11,23,50,-36,30,-45,55,23,68,-36,47,-45,74
21537,-2,35,3,72,-9,21,23,50,-37,20,-46,05,23,68,-36,58,-45,79
21560,-2,35,3,63,-9,11,23,50,-36,30,-45,55,23,68,-36,54,-45,75
21581,-2,35,3,63,-9,11,23,50,-36,30,-45,55,23,68,-36,50,-45,72
21598,-2,35,3,63,-9,11,23,50,-36,30,-45,55,23,68,-36,47,-45,72
21627,-2,35,3,63,-9,11,23,50,-36,30,-45,55,23,68,-36,47,-45,72
21646,-2,35,3,63,-9,11,23,50,-36,30,-45,55,23,68,-36,47,-45,72
21666,-2,35,3,63,-9,11,23,50,-36,30,-45,55,23,68,-36,47,-45,72
21685,-2,35,3,63,-9,11,23,50,-36,30,-45,55,23,68,-36,47,-45,72
21704,-2,35,3,63,-9,21,23,50,-36,30,-46,05,23,68,-36,47,-45,77
21722,-2,35,3,43,-9,21,23,50,-34,30,-46,05,23,68,-36,15,-45,81
21742,-2,35,3,63,-9,11,23,50,-36,30,-45,55,23,68,-36,15,-45,77
21761,-2,35,3,63,-9,11,23,50,-36,30,-45,55,23,68,-36,15,-45,74
21779,-2,35,3,63,-9,11,23,50,-36,30,-45,55,23,68,-36,15,-45,74
21796,-2,35,3,63,-9,11,23,50,-36,30,-45,55,23,68,-36,15,-45,74
21812,-2,35,3,63,-9,11,23,50,-36,30,-45,55,23,68,-36,15,-45,74
21829,-2,35,3,63,-9,11,23,50,-36,30,-45,55,23,68,-36,15,-45,74
21845,-2,45,3,63,-9,11,24,50,-36,30,-45,55,23,80,-36,15,-45,74
21865,-2,35,3,72,-9,21,23,50,-37,20,-46,05,23,76,-36,30,-45,79
21885,-2,35,3,72,-9,11,23,50,-37,20,-45,55,23,72,-36,44,-45,75
21903,-2,35,3,63,-9,11,23,50,-36,30,-45,55,23,69,-36,44,-45,72
21926,-2,35,3,63,-9,11,23,50,-36,30,-45,55,23,69,-36,44,-45,72
21946,-2,35,3,63,-9,21,23,50,-36,30,-46,05,23,69,-36,44,-45,77
21965,-2,35,3,72,-9,21,23,50,-37,20,-46,05,23,69,-36,55,-45,81
21988,-2,35,3,63,-9,11,23,50,-36,30,-45,55,23,69,-36,51,-45,77
22005,-2,35,3,63,-9,11,23,50,-36,30,-45,55,23,69,-36,48,-45,74
22024,-2,35,3,63,-9,11,23,50,-36,30,-45,55,23,69,-36,48,-45,74
22044,-2,35,3,63,-9,11,23,50,-36,30,-45,55,23,69,-36,48,-45,74
22063,-2,35,3,63,-9,11,23,50,-36,30,-45,55,23,69,-36,48,-45,74
22080,-2,35,3,63,-9,11,23,50,-36,30,-45,55,23,69,-36,48,-45,74
22096,-2,35,3,63,-9,11,23,50,-36,30,-45,55,23,69,-36,48,-45,74
22115,-2,35,3,63,-9,11,23,50,-36,30,-45,55,23,69,-36,48,-45,74
22131,-2,35,3,63,-9,11,23,50,-36,30,-45,55,23,69,-36,48,-45,74
22147,-2,35,3,63,-9,11,23,50,-36,30,-45,55,23,69,-36,48,-45,74
22164,-2,35,3,72,-9,21,23,50,-37,20,-46,05,23,69,-36,59,-45,79
22180,-2,35,3,72,-9,21,23,50,-37,20,-46,05,23,69,-36,68,-45,83
22195,-2,35,3,63,-9,11,23,50,-36,30,-45,55,23,69,-36,62,-45,78
22213,-2,35,3,63,-9,21,23,50,-36,30,-46,05,23,69,-36,58,-45,82
22230,-2,45,3,72,-9,21,24,50,-37,20,-46,05,23,81,-36,67,-45,86
22246,-2,45,3,63,-9,11,24,50,-36,30,-45,55,23,91,-36,61,-45,81
22264,-2,35,3,63,-9,11,23,50,-36,30,-45,55,23,85,-36,57,-45,77
22281,-2,35,3,63,-9,11,23,50,-36,30,-45,55,23,80,-36,53,-45,74
22297,-2,35,3,63,-9,11,23,50,-36,30,-45,55,23,75,-36,49,-45,74
22313,-2,45,3,63,-9,11,24,50,-36,30,-45,55,23,87,-36,49,-45,74
22330,-2,45,3,63,-9,11,24,50,-36,30,-45,55,23,96,-36,49,-45,74
22345,-2,35,3,63,-9,11,23,50,-36,30,-45,55,23,89,-36,49,-45,74
22362,-2,35,3,63,-9,21,23,50,-36,30,-46,05,23,83,-36,49,-45,79
22378,-2,45,3,72,-9,21,24,50,-37,20,-46,05,23,93,-36,60,-45,83
22394,-2,45,3,72,-9,11,24,50,-37,20,-45,55,24,02,-36,69,-45,78
22410,-2,45,3,63,-9,11,24,50,-36,30,-45,55,24,09,-36,63,-45,75
22425,-2,45,3,63,-9,11,24,50,-36,30,-45,55,24,15,-36,58,-45,75
22440,-2,45,3,63,-9,11,24,50,-36,30,-45,55,24,20,-36,54,-45,75
22458,-2,45,3,63,-9,11,24,50,-36,30,-45,55,24,25,-36,50,-45,75
22474,-2,35,3,63,-9,11,23,50,-36,30,-45,55,24,14,-36,47,-45,75
22490,-2,35,3,63,-9,11,23,50,-36,30,-45,55,24,04,-36,47,-45,75
22506,-2,35,3,63,-9,11,23,50,-36,30,-45,55,23,96,-36,47,-45,75
22522,-2,35,3,63,-9,11,23,50,-36,30,-45,55,23,89,-36,47,-45,75
22539,-2,35,3,63,-9,11,23,50,-36,30,-45,55,23,83,-36,47,-45,75
22560,-2,35,3,63,-9,11,23,50,-36,30,-45,55,23,78,-36,47,-45,75
22576,-2,35,3,63,-9,11,23,50,-36,30,-45,55,23,74,-36,47,-45,75
22592,-2,35,3,63,-9,11,23,50,-36,30,-45,55,23,70,-36,47,-45,75
22608,-2,35,3,63,-9,11,23,50,-36,30,-45,55,23,67,-36,47,-45,75
22627,-2,45,3,63,-9,11,24,50,-36,30,-45,55,23,80,-36,47,-45,75
22644,-2,35,3,63,-9,11,23,50,-36,30,-45,55,23,75,-36,47,-45,75
22663,-2,35,3,63,-9,11,23,50,-36,30,-45,55,23,71,-36,47,-45,75
22679,-2,35,3,63,-9,11,23,50,-36,30,-45,55,23,68,-36,47,-45,75
22695,-2,35,3,63,-9,21,23,50,-36,30,-46,05,23,68,-36,47,-45,79
22714,-2,35,3,72,-9,21,23,50,-37,20,-46,05,23,68,-36,58,-45,83
22734,-2,35,3,63,-9,11,23,50,-36,30,-45,55,23,68,-36,54,-45,79
22750,-2,35,3,63,-9,11,23,50,-36,30,-45,55,23,68,-36,50,-45,75
22769,-2,35,3,43,-9,21,23,50,-34,30,-46,05,23,68,-36,17,-45,80
22786,-2,35,3,63,-9,11,23,50,-36,30,-45,55,23,68,-36,17,-45,76
22803,-2,35,3,63,-9,11,23,50,-36,30,-45,55,23,68,-36,17,-45,73
22820,-2,35,3,72,-9,21,23,50,-37,20,-46,05,23,68,-36,33,-45,78
22836,-2,35,3,72,-9,21,23,50,-37,20,-46,05,23,68,-36,46,-45,82
22854,-2,35,3,72,-9,21,23,50,-37,20,-46,05,23,68,-36,57,-45,85
22876,-2,35,3,72,-9,11,23,50,-37,20,-45,55,23,68,-36,66,-45,81
22894,-2,45,3,63,-9,11,24,50,-36,30,-45,55,23,81,-36,61,-45,77
22912,-2,35,3,63,-9,11,23,50,-36,30,-45,55,23,76,-36,56,-45,74
22929,-2,35,3,63,-9,11,23,50,-36,30,-45,55,23,72,-36,52,-45,74
22950,-2,35,3,63,-9,11,23,50,-36,30,-45,55,23,69,-36,49,-45,74
22966,-2,35,3,43,-8,82,23,50,-34,30,-44,10,23,69,-36,16,-45,49
22988,-2,35,3,43,-8,82,23,50,-34,30,-44,10,23,69,-35,88,-45,28
23010,-2,35,3,63,-9,11,23,50,-36,30,-45,55,23,69,-35,94,-45,32
23029,-2,35,3,72,-9,21,23,50,-37,20,-46,05,23,69,-36,13,-45,43
23045,-2,35,3,72,-9,21,23,50,-37,20,-46,05,23,69,-36,29,-45,52
23063,-2,45,3,72,-9,21,24,50,-37,20,-46,05,23,81,-36,43,-45,60
23084,-2,45,3,72,-9,11,24,50,-37,20,-45,55,23,91,-36,54,-45,60
23100,-2,35,3,63,-9,11,23,50,-36,30,-45,55,23,85,-36,51,-45,60
23120,-2,35,3,63,-9,11,23,50,-36,30,-45,55,23,80,-36,48,-45,60
23140,-2,35,3,63,-9,11,23,50,-36,30,-45,55,23,75,-36,48,-45,60
23156,-2,35,3,63,-9,11,23,50,-36,30,-45,55,23,72,-36,48,-45,60
23179,-2,35,3,63,-9,11,23,50,-36,30,-45,55,23,68,-36,48,-45,60
23195,-2,35,3,63,-9,11,23,50,-36,30,-45,55,23,68,-36,48,-45,60
23211,-2,35,3,63,-9,11,23,50,-36,30,-45,55,23,68,-36,48,-45,60
23227,-2,35,3,63,-9,11,23,50,-36,30,-45,55,23,68,-36,48,-45,60
23244,-2,35,3,72,-9,21,23,50,-37,20,-46,05,23,68,-36,59,-45,67
23260,-2,35,3,72,-9,21,23,50,-37,20,-46,05,23,68,-36,68,-45,73
23277,-2,35,3,72,-9,21,23,50,-37,20,-46,05,23,68,-36,76,-45,78
23294,-2,35,3,72,-9,11,23,50,-37,20,-45,55,23,68,-36,82,-45,74
23310,-2,35,3,63,-9,11,23,50,-36,30,-45,55,23,68,-36,74,-45,74
23327,-2,35,3,63,-9,11,23,50,-36,30,-45,55,23,68,-36,68,-45,74
23344,-2,35,3,63,-9,11,23,50,-36,30,-45,55,23,68,-36,62,-45,74
23361,-2,35,3,63,-9,11,23,50,-36,30,-45,55,23,68,-36,57,-45,74
23383,-2,35,3,63,-9,11,23,50,-36,30,-45,55,23,68,-36,53,-45,74
23403,-2,35,3,63,-9,11,23,50,-36,30,-45,55,23,68,-36,50,-45,74
23420,-2,35,3,63,-9,11,23,50,-36,30,-45,55,23,68,-36,50,-45,74
23442,-2,35,3,63,-9,21,23,50,-36,30,-46,05,23,68,-36,50,-45,79
23459,-2,35,3,63,-9,11,23,50,-36,30,-45,55,23,68,-36,50,-45,75
23477,-2,35,3,63,-9,11,23,50,-36,30,-45,55,23,68,-36,50,-45,72
23493,-2,35,3,63,-9,11,23,50,-36,30,-45,55,23,68,-36,50,-45,72
23510,-2,35,3,63,-9,11,23,50,-36,30,-45,55,23,68,-36,50,-45,72
23529,-2,35,3,63,-9,11,23,50,-36,30,-45,55,23,68,-36,50,-45,72
23545,-2,35,3,63,-9,11,23,50,-36,30,-45,55,23,68,-36,50,-45,72
23561,-2,35,3,63,-9,11,23,50,-36,30,-45,55,23,68,-36,50,-45,72
23580,-2,35,3,63,-9,11,23,50,-36,30,-45,55,23,68,-36,50,-45,72
23596,-2,35,3,63,-9,11,23,50,-36,30,-45,55,23,68,-36,50,-45,72
23612,-2,35,3,63,-9,11,23,50,-36,30,-45,55,23,68,-36,50,-45,72
23628,-2,35,3,63,-9,11,23,50,-36,30,-45,55,23,68,-36,50,-45,72
23644,-2,35,3,63,-9,11,23,50,-36,30,-45,55,23,68,-36,50,-45,72
23660,-2,35,3,63,-9,11,23,50,-36,30,-45,55,23,68,-36,50,-45,72
23676,-2,35,3,63,-9,11,23,50,-36,30,-45,55,23,68,-36,50,-45,72
23691,-2,35,3,63,-9,11,23,50,-36,30,-45,55,23,68,-36,50,-45,72
23707,-2,35,3,63,-9,11,23,50,-36,30,-45,55,23,68,-36,50,-45,72
23723,-2,35,3,63,-9,11,23,50,-36,30,-45,55,23,68,-36,50,-45,72
23739,-2,35,3,63,-9,11,23,50,-36,30,-45,55,23,68,-36,50,-45,72
23758,-2,45,3,72,-9,21,24,50,-37,20,-46,05,23,81,-36,60,-45,77
23776,-2,45,3,72,-9,11,24,50,-37,20,-45,55,23,91,-36,69,-45,74
23793,-2,35,3,63,-9,11,23,50,-36,30,-45,55,23,85,-36,63,-45,74
23809,-2,35,3,72,-9,02,23,50,-37,20,-45,10,23,80,-36,72,-45,64
23831,-2,35,3,72,-9,11,23,50,-37,20,-45,55,23,75,-36,79,-45,64
23849,-2,45,3,63,-9,11,24,50,-36,30,-45,55,23,86,-36,72,-45,64
23871,-2,45,3,63,-9,11,24,50,-36,30,-45,55,23,96,-36,65,-45,64
23887,-2,35,3,63,-9,11,23,50,-36,30,-45,55,23,89,-36,60,-45,64
23905,-2,45,3,72,-9,21,24,50,-37,20,-46,05,23,98,-36,69,-45,70
23925,-2,45,3,72,-9,11,24,50,-37,20,-45,55,24,06,-36,77,-45,70
23943,-2,35,3,63,-9,11,23,50,-36,30,-45,55,23,98,-36,70,-45,70
23961,-2,35,3,63,-9,11,23,50,-36,30,-45,55,23,90,-36,64,-45,70
23977,-2,35,3,63,-9,11,23,50,-36,30,-45,55,23,84,-36,59,-45,70
23993,-2,35,3,63,-9,11,23,50,-36,30,-45,55,23,79,-36,54,-45,70
24009,-2,35,3,63,-9,11,23,50,-36,30,-45,55,23,75,-36,51,-45,70
24026,-2,35,3,63,-9,11,23,50,-36,30,-45,55,23,71,-36,48,-45,70
24044,-2,35,3,63,-9,11,23,50,-36,30,-45,55,23,68,-36,48,-45,70
24063,-2,35,3,63,-9,11,23,50,-36,30,-45,55,23,68,-36,48,-45,70
24079,-2,35,3,63,-9,11,23,50,-36,30,-45,55,23,68,-36,48,-45,70
24095,-2,35,3,63,-9,11,23,50,-36,30,-45,55,23,68,-36,48,-45,70
24110,-2,35,3,63,-9,11,23,50,-36,30,-45,55,23,68,-36,48,-45,70
24126,-2,35,3,63,-9,11,23,50,-36,30,-45,55,23,68,-36,48,-45,70
24145,-2,35,3,63,-9,11,23,50,-36,30,-45,55,23,68,-36,48,-45,70
24162,-2,35,3,63,-9,11,23,50,-36,30,-45,55,23,68,-36,48,-45,70
24182,-2,45,3,63,-9,11,24,50,-36,30,-45,55,23,80,-36,48,-45,70
24198,-2,45,3,63,-9,11,24,50,-36,30,-45,55,23,91,-36,48,-45,70
24219,-2,45,3,63,-9,11,24,50,-36,30,-45,55,24,00,-36,48,-45,70
24243,-2,35,3,63,-9,11,23,50,-36,30,-45,55,23,92,-36,48,-45,70
24259,-2,35,3,63,-9,11,23,50,-36,30,-45,55,23,86,-36,48,-45,70
24275,-2,35,3,63,-9,11,23,50,-36,30,-45,55,23,80,-36,48,-45,70
24291,-2,35,3,72,-9,21,23,50,-37,20,-46,05,23,76,-36,58,-45,76
24307,-2,35,3,72,-9,21,23,50,-37,20,-46,05,23,72,-36,68,-45,80
24323,-2,35,3,63,-9,11,23,50,-36,30,-45,55,23,69,-36,62,-45,76
24339,-2,35,3,63,-9,11,23,50,-36,30,-45,55,23,69,-36,57,-45,73
24355,-2,35,3,63,-9,11,23,50,-36,30,-45,55,23,69,-36,53,-45,73
24373,-2,35,3,63,-9,21,23,50,-36,30,-46,05,23,69,-36,50,-45,78
24389,-2,35,3,72,-9,21,23,50,-37,20,-46,05,23,69,-36,60,-45,82
24405,-2,35,3,63,-9,11,23,50,-36,30,-45,55,23,69,-36,56,-45,78
24421,-2,45,3,63,-9,11,24,50,-36,30,-45,55,23,81,-36,52,-45,74
24438,-2,45,3,63,-9,11,24,50,-36,30,-45,55,23,91,-36,49,-45,74
24454,-2,35,3,63,-9,11,23,50,-36,30,-45,55,23,85,-36,49,-45,74
24470,-2,35,3,63,-9,11,23,50,-36,30,-45,55,23,80,-36,49,-45,74
24509,-2,35,3,53,-9,31,23,50,-35,30,-46,55,23,75,-36,31,-45,87
24541,-2,35,3,72,-9,21,23,50,-37,20,-46,05,23,72,-36,44,-45,87
24557,-2,35,3,72,-9,21,23,50,-37,20,-46,05,23,68,-36,56,-45,87
24574,-2,35,3,72,-9,21,23,50,-37,20,-46,05,23,68,-36,65,-45,87
24590,-2,35,3,63,-9,11,23,50,-36,30,-45,55,23,68,-36,60,-45,82
24606,-2,35,3,63,-9,11,23,50,-36,30,-45,55,23,68,-36,55,-45,78
24622,-2,45,3,63,-9,11,24,50,-36,30,-45,55,23,81,-36,52,-45,74
24640,-2,45,3,63,-9,11,24,50,-36,30,-45,55,23,91,-36,48,-45,74
24656,-2,35,3,63,-9,11,23,50,-36,30,-45,55,23,85,-36,48,-45,74
24672,-2,35,3,63,-9,11,23,50,-36,30,-45,55,23,80,-36,48,-45,74
24688,-2,35,3,63,-9,11,23,50,-36,30,-45,55,23,75,-36,48,-45,74
24704,-2,35,3,63,-9,21,23,50,-36,30,-46,05,23,71,-36,48,-45,79
24720,-2,35,3,72,-9,21,23,50,-37,20,-46,05,23,68,-36,59,-45,83
24737,-2,35,3,63,-9,11,23,50,-36,30,-45,55,23,68,-36,55,-45,79
24753,-2,35,3,63,-9,11,23,50,-36,30,-45,55,23,68,-36,51,-45,75
24769,-2,35,3,63,-9,11,23,50,-36,30,-45,55,23,68,-36,48,-45,72
24786,-2,35,3,63,-9,11,23,50,-36,30,-45,55,23,68,-36,48,-45,72
24803,-2,45,3,72,-9,02,24,50,-37,20,-45,10,23,80,-36,59,-45,63
24820,-2,45,3,72,-9,02,24,50,-37,20,-45,10,23,91,-36,68,-45,55
24837,-2,35,3,72,-9,21,23,50,-37,20,-46,05,23,85,-36,76,-45,62
24853,-2,35,3,72,-9,11,23,50,-37,20,-45,55,23,80,-36,82,-45,62
24869,-2,35,3,63,-9,11,23,50,-36,30,-45,55,23,75,-36,75,-45,62
24886,-2,35,3,72,-9,02,23,50,-37,20,-45,10,23,71,-36,81,-45,55
24902,-2,35,3,72,-9,02,23,50,-37,20,-45,10,23,68,-36,87,-45,48
24919,-2,35,3,72,-9,02,23,50,-37,20,-45,10,23,68,-36,92,-45,42
24940,-2,35,3,72,-9,02,23,50,-37,20,-45,10,23,68,-36,96,-45,37
24960,-2,35,3,63,-9,11,23,50,-36,30,-45,55,23,68,-36,86,-45,37
24976,-2,35,3,63,-9,11,23,50,-36,30,-45,55,23,68,-36,78,-45,37
24994,-2,35,3,63,-9,11,23,50,-36,30,-45,55,23,68,-36,71,-45,37
25011,-2,35,3,82,-9,11,23,50,-38,20,-45,55,23,68,-36,93,-45,37
25027,-2,35,3,82,-9,11,23,50,-38,20,-45,55,23,68,-37,12,-45,37
25043,-2,35,3,63,-9,11,23,50,-36,30,-45,55,23,68,-37,00,-45,37
25061,-2,35,3,63,-9,11,23,50,-36,30,-45,55,23,68,-36,89,-45,37
25078,-2,45,3,63,-9,11,24,50,-36,30,-45,55,23,80,-36,80,-45,37
25094,-2,45,3,63,-9,21,24,50,-36,30,-46,05,23,91,-36,73,-45,47
25111,-2,45,3,72,-9,21,24,50,-37,20,-46,05,24,00,-36,80,-45,56
25127,-2,45,3,63,-9,11,24,50,-36,30,-45,55,24,07,-36,72,-45,56
25142,-2,35,3,63,-9,11,23,50,-36,30,-45,55,23,99,-36,66,-45,56
25158,-2,35,3,72,-9,21,23,50,-37,20,-46,05,23,91,-36,74,-45,63
25174,-2,35,3,72,-9,21,23,50,-37,20,-46,05,23,85,-36,81,-45,70
25191,-2,35,3,72,-9,21,23,50,-37,20,-46,05,23,80,-36,87,-45,75
25207,-2,35,3,72,-9,21,23,50,-37,20,-46,05,23,75,-36,92,-45,79
25223,-2,35,3,63,-9,11,23,50,-36,30,-45,55,23,72,-36,83,-45,76
25239,-2,35,3,63,-9,11,23,50,-36,30,-45,55,23,68,-36,75,-45,73
25254,-2,35,3,63,-9,11,23,50,-36,30,-45,55,23,68,-36,68,-45,73
25270,-2,35,3,63,-9,11,23,50,-36,30,-45,55,23,68,-36,62,-45,73
25288,-2,35,3,63,-9,11,23,50,-36,30,-45,55,23,68,-36,57,-45,73
25304,-2,35,3,63,-9,02,23,50,-36,30,-45,10,23,68,-36,53,-45,63
25320,-2,35,3,72,-9,02,23,50,-37,20,-45,10,23,68,-36,63,-45,55
25337,-2,35,3,63,-9,11,23,50,-36,30,-45,55,23,68,-36,58,-45,55
25358,-2,35,3,63,-9,11,23,50,-36,30,-45,55,23,68,-36,54,-45,55
25374,-2,35,3,63,-9,11,23,50,-36,30,-45,55,23,68,-36,50,-45,55
25390,-2,35,3,63,-9,11,23,50,-36,30,-45,55,23,68,-36,47,-45,55
25406,-2,35,3,63,-9,11,23,50,-36,30,-45,55,23,68,-36,47,-45,55
25422,-2,35,3,63,-9,11,23,50,-36,30,-45,55,23,68,-36,47,-45,55
25437,-2,35,3,63,-9,11,23,50,-36,30,-45,55,23,68,-36,47,-45,55
25458,-2,35,3,63,-9,11,23,50,-36,30,-45,55,23,68,-36,47,-45,55
25478,-2,35,3,63,-9,11,23,50,-36,30,-45,55,23,68,-36,47,-45,55
25497,-2,35,3,63,-9,11,23,50,-36,30,-45,55,23,68,-36,47,-45,55
25515,-2,35,3,63,-9,11,23,50,-36,30,-45,55,23,68,-36,47,-45,55
25532,-2,35,3,63,-9,11,23,50,-36,30,-45,55,23,68,-36,47,-45,55
25555,-2,35,3,63,-9,11,23,50,-36,30,-45,55,23,68,-36,47,-45,55
25609,-2,35,3,72,-9,21,23,50,-37,20,-46,05,23,68,-36,58,-45,63
25629,-2,35,3,72,-9,21,23,50,-37,20,-46,05,23,68,-36,68,-45,69
25662,-2,45,3,63,-9,11,24,50,-36,30,-45,55,23,81,-36,62,-45,69
25682,-2,45,3,63,-9,11,24,50,-36,30,-45,55,23,91,-36,57,-45,69
25701,-2,45,3,63,-9,11,24,50,-36,30,-45,55,24,00,-36,53,-45,69
25717,-2,45,3,63,-9,11,24,50,-36,30,-45,55,24,07,-36,50,-45,69
25732,-2,35,3,63,-9,11,23,50,-36,30,-45,55,23,99,-36,50,-45,69
25747,-2,35,3,63,-9,11,23,50,-36,30,-45,55,23,91,-36,50,-45,69
25762,-2,35,3,63,-9,11,23,50,-36,30,-45,55,23,85,-36,50,-45,69
25779,-2,35,3,63,-9,11,23,50,-36,30,-45,55,23,80,-36,50,-45,69
25795,-2,35,3,72,-9,02,23,50,-37,20,-45,10,23,75,-36,60,-45,60
25813,-2,35,3,72,-9,02,23,50,-37,20,-45,10,23,72,-36,69,-45,53
25831,-2,35,3,72,-9,02,23,50,-37,20,-45,10,23,68,-36,77,-45,46
25851,-2,35,3,82,-9,11,23,50,-38,20,-45,55,23,68,-36,98,-45,46
25868,-2,35,3,82,-9,11,23,50,-38,20,-45,55,23,68,-37,17,-45,46
25890,-2,45,3,63,-9,11,24,50,-36,30,-45,55,23,81,-37,04,-45,46
25906,-2,45,3,63,-9,11,24,50,-36,30,-45,55,23,91,-36,93,-45,46
25924,-2,45,3,63,-9,11,24,50,-36,30,-45,55,24,00,-36,83,-45,46
25939,-2,45,3,63,-9,11,24,50,-36,30,-45,55,24,07,-36,75,-45,46
25955,-2,35,3,63,-9,11,23,50,-36,30,-45,55,23,99,-36,68,-45,46
25971,-2,45,3,72,-9,21,24,50,-37,20,-46,05,24,06,-36,76,-45,55
25996,-2,45,3,72,-9,11,24,50,-37,20,-45,55,24,13,-36,83,-45,55
26016,-2,35,3,63,-9,11,23,50,-36,30,-45,55,24,04,-36,75,-45,55
26034,-2,35,3,53,-9,31,23,50,-35,30,-46,55,23,96,-36,53,-45,70
26061,-2,35,3,63,-9,11,23,50,-36,30,-45,55,23,89,-36,50,-45,70
26086,-2,35,3,63,-9,11,23,50,-36,30,-45,55,23,83,-36,50,-45,70
26108,-2,45,3,63,-9,11,24,50,-36,30,-45,55,23,93,-36,50,-45,70
26131,-2,35,3,63,-9,11,23,50,-36,30,-45,55,23,87,-36,50,-45,70
26148,-2,35,3,63,-9,11,23,50,-36,30,-45,55,23,81,-36,50,-45,70
26165,-2,35,3,63,-9,11,23,50,-36,30,-45,55,23,76,-36,50,-45,70
26185,-2,35,3,72,-9,02,23,50,-37,20,-45,10,23,72,-36,60,-45,61
26201,-2,35,3,72,-9,02,23,50,-37,20,-45,10,23,69,-36,69,-45,53
26217,-2,35,3,63,-9,11,23,50,-36,30,-45,55,23,69,-36,63,-45,53
26232,-2,35,3,63,-9,11,23,50,-36,30,-45,55,23,69,-36,58,-45,53
26249,-2,35,3,63,-9,11,23,50,-36,30,-45,55,23,69,-36,54,-45,53
26264,-2,35,3,63,-9,11,23,50,-36,30,-45,55,23,69,-36,50,-45,53
26279,-2,35,3,63,-9,11,23,50,-36,30,-45,55,23,69,-36,47,-45,53
26294,-2,35,3,63,-9,11,23,50,-36,30,-45,55,23,69,-36,47,-45,53
26309,-2,45,3,63,-9,11,24,50,-36,30,-45,55,23,81,-36,47,-45,53
26402,-2,45,3,63,-9,11,24,50,-36,30,-45,55,23,92,-36,47,-45,53
26427,-2,35,3,63,-9,11,23,50,-36,30,-45,55,23,85,-36,47,-45,53
26460,-2,35,3,63,-9,11,23,50,-36,30,-45,55,23,80,-36,47,-45,53
26490,-2,35,3,72,-9,21,23,50,-37,20,-46,05,23,75,-36,58,-45,61
26516,-2,45,3,63,-9,11,24,50,-36,30,-45,55,23,87,-36,54,-45,61
26547,-2,35,3,72,-9,21,23,50,-37,20,-46,05,23,81,-36,64,-45,68
26573,-2,35,3,72,-9,21,23,50,-37,20,-46,05,23,76,-36,72,-45,73
26599,-2,35,3,72,-9,02,23,50,-37,20,-45,10,23,73,-36,79,-45,64
26621,-2,45,3,72,-9,02,24,50,-37,20,-45,10,23,84,-36,86,-45,56
26649,-2,35,3,63,-9,11,23,50,-36,30,-45,55,23,79,-36,77,-45,56
26666,-2,35,3,63,-9,11,23,50,-36,30,-45,55,23,75,-36,70,-45,56
26684,-2,35,3,63,-9,11,23,50,-36,30,-45,55,23,71,-36,64,-45,56
26702,-2,35,3,63,-9,11,23,50,-36,30,-45,55,23,68,-36,59,-45,56
26721,-2,35,3,63,-9,11,23,50,-36,30,-45,55,23,68,-36,55,-45,56
26746,-2,35,3,63,-9,21,23,50,-36,30,-46,05,23,68,-36,51,-45,63
26763,-2,45,3,72,-9,21,24,50,-37,20,-46,05,23,80,-36,61,-45,69
26778,-2,45,3,63,-9,11,24,50,-36,30,-45,55,23,91,-36,57,-45,69
26793,-2,45,3,63,-9,11,24,50,-36,30,-45,55,24,00,-36,53,-45,69
26808,-2,45,3,63,-9,11,24,50,-36,30,-45,55,24,07,-36,49,-45,69
26825,-2,35,3,63,-9,11,23,50,-36,30,-45,55,23,99,-36,49,-45,69
26841,-2,35,3,63,-9,11,23,50,-36,30,-45,55,23,91,-36,49,-45,69
26859,-2,35,3,63,-9,11,23,50,-36,30,-45,55,23,85,-36,49,-45,69
26875,-2,35,3,72,-9,02,23,50,-37,20,-45,10,23,80,-36,60,-45,61
26890,-2,35,3,72,-9,02,23,50,-37,20,-45,10,23,75,-36,69,-45,53
26905,-2,35,3,72,-9,02,23,50,-37,20,-45,10,23,72,-36,77,-45,46
26920,-2,35,3,72,-9,02,23,50,-37,20,-45,10,23,68,-36,83,-45,41
26935,-2,45,3,63,-9,11,24,50,-36,30,-45,55,23,81,-36,75,-45,41
26951,-2,45,3,63,-9,02,24,50,-36,30,-45,10,23,91,-36,68,-45,36
26967,-2,35,3,72,-9,02,23,50,-37,20,-45,10,23,85,-36,76,-45,32
26982,-2,35,3,72,-9,11,23,50,-37,20,-45,55,23,80,-36,83,-45,36
26998,-2,35,3,63,-9,11,23,50,-36,30,-45,55,23,75,-36,75,-45,36
27014,-2,35,3,63,-9,11,23,50,-36,30,-45,55,23,71,-36,68,-45,36
27029,-2,45,3,63,-9,11,24,50,-36,30,-45,55,23,83,-36,62,-45,36
27044,-2,45,3,63,-9,11,24,50,-36,30,-45,55,23,93,-36,57,-45,36
27060,-2,45,3,63,-9,11,24,50,-36,30,-45,55,24,02,-36,53,-45,36
27080,-2,45,3,82,-9,11,24,50,-38,20,-45,55,24,09,-36,78,-45,36
27099,-2,45,3,82,-9,11,24,50,-38,20,-45,55,24,15,-37,00,-45,36
27114,-2,45,3,82,-9,11,24,50,-38,20,-45,55,24,20,-37,18,-45,36
27129,-2,45,3,82,-9,11,24,50,-38,20,-45,55,24,25,-37,33,-45,36
27147,-2,45,3,63,-9,11,24,50,-36,30,-45,55,24,29,-37,18,-45,36
27166,-2,45,3,72,-9,21,24,50,-37,20,-46,05,24,32,-37,18,-45,46
27182,-2,16,3,72,-9,21,21,60,-37,20,-46,05,23,91,-37,18,-45,55
27197,-2,16,3,72,-9,02,21,60,-37,20,-45,10,23,56,-37,18,-45,48
27212,-2,35,3,72,-9,02,23,50,-37,20,-45,10,23,56,-37,18,-45,43
27227,-2,35,3,63,-9,11,23,50,-36,30,-45,55,23,56,-37,04,-45,43
27243,-2,35,3,63,-9,11,23,50,-36,30,-45,55,23,56,-36,93,-45,43
27259,-2,35,3,72,-9,02,23,50,-37,20,-45,10,23,56,-36,97,-45,38
27274,-2,35,3,72,-9,02,23,50,-37,20,-45,10,23,56,-37,01,-45,33
27289,-2,35,3,72,-9,21,23,50,-37,20,-46,05,23,56,-37,01,-45,44
27305,-2,35,3,72,-9,21,23,50,-37,20,-46,05,23,56,-37,01,-45,53
27326,-2,45,3,72,-9,21,24,50,-37,20,-46,05,23,70,-37,01,-45,61
27342,-2,45,3,72,-9,11,24,50,-37,20,-45,55,23,82,-37,01,-45,61
27359,-2,35,3,63,-9,11,23,50,-36,30,-45,55,23,77,-36,90,-45,61
27376,-2,35,3,63,-9,11,23,50,-36,30,-45,55,23,73,-36,81,-45,61
27393,-2,35,3,63,-9,11,23,50,-36,30,-45,55,23,70,-36,73,-45,61
27411,-2,35,3,63,-9,11,23,50,-36,30,-45,55,23,70,-36,67,-45,61
27427,-2,35,3,63,-9,11,23,50,-36,30,-45,55,23,70,-36,61,-45,61
27445,-2,35,3,63,-9,11,23,50,-36,30,-45,55,23,70,-36,57,-45,61
27461,-2,35,3,63,-9,11,23,50,-36,30,-45,55,23,70,-36,53,-45,61
27477,-2,35,3,63,-9,11,23,50,-36,30,-45,55,23,70,-36,49,-45,61
27495,-2,35,3,63,-9,02,23,50,-36,30,-45,10,23,70,-36,49,-45,53
27512,-2,45,3,72,-9,02,24,50,-37,20,-45,10,23,82,-36,60,-45,47
27529,-2,45,3,72,-9,02,24,50,-37,20,-45,10,23,92,-36,69,-45,41
27546,-2,45,3,72,-9,02,24,50,-37,20,-45,10,24,01,-36,77,-45,37
27563,-2,16,3,63,-9,11,21,60,-36,30,-45,55,23,65,-36,70,-45,37
27578,-2,16,3,63,-9,11,21,60,-36,30,-45,55,23,34,-36,64,-45,37
27596,-2,35,3,72,-9,21,23,50,-37,20,-46,05,23,34,-36,72,-45,47
27614,-2,35,3,72,-9,02,23,50,-37,20,-45,10,23,34,-36,79,-45,41
27632,-2,35,3,72,-9,02,23,50,-37,20,-45,10,23,34,-36,85,-45,37
27647,-2,35,3,72,-9,02,23,50,-37,20,-45,10,23,34,-36,91,-45,33
27664,-2,45,3,72,-9,02,24,50,-37,20,-45,10,23,51,-36,95,-45,29
27680,-2,45,3,72,-9,02,24,50,-37,20,-45,10,23,66,-36,99,-45,29
27697,-2,35,3,72,-9,02,23,50,-37,20,-45,10,23,66,-37,02,-45,29
27713,-2,35,3,63,-8,82,23,50,-36,30,-44,10,23,66,-36,91,-45,11
27729,-2,35,3,63,-8,82,23,50,-36,30,-44,10,23,66,-36,82,-44,96
27745,-2,45,3,72,-9,21,24,50,-37,20,-46,05,23,79,-36,88,-45,12
27762,-2,45,3,72,-9,11,24,50,-37,20,-45,55,23,89,-36,93,-45,19
27777,-2,45,3,63,-9,11,24,50,-36,30,-45,55,23,99,-36,83,-45,24
27792,-2,45,3,63,-9,11,24,50,-36,30,-45,55,24,06,-36,75,-45,29
27807,-2,35,3,82,-9,11,23,50,-38,20,-45,55,23,98,-36,97,-45,33
27823,-2,35,3,82,-9,11,23,50,-38,20,-45,55,23,91,-37,15,-45,36
27841,-2,45,3,63,-9,11,24,50,-36,30,-45,55,24,00,-37,03,-45,36
27860,-2,45,3,63,-9,11,24,50,-36,30,-45,55,24,07,-36,92,-45,36
27877,-2,35,3,63,-9,11,23,50,-36,30,-45,55,23,99,-36,82,-45,36
27893,-2,35,3,63,-9,11,23,50,-36,30,-45,55,23,91,-36,75,-45,36
27908,-2,35,3,63,-9,11,23,50,-36,30,-45,55,23,85,-36,68,-45,36
27926,-2,35,3,72,-9,02,23,50,-37,20,-45,10,23,80,-36,76,-45,32
27943,-2,35,3,72,-9,02,23,50,-37,20,-45,10,23,75,-36,82,-45,29
27962,-2,35,3,72,-9,02,23,50,-37,20,-45,10,23,72,-36,88,-45,29
27979,-2,35,3,72,-9,02,23,50,-37,20,-45,10,23,68,-36,93,-45,29
27995,-2,35,3,72,-9,02,23,50,-37,20,-45,10,23,68,-36,97,-45,29
28011,-2,35,3,72,-9,02,23,50,-37,20,-45,10,23,68,-37,00,-45,29
28030,-2,35,3,72,-9,02,23,50,-37,20,-45,10,23,68,-37,00,-45,29
28045,-2,45,3,63,-9,11,24,50,-36,30,-45,55,23,81,-36,90,-45,33
28060,-2,45,3,63,-9,11,24,50,-36,30,-45,55,23,91,-36,81,-45,36
28075,-2,35,3,63,-9,11,23,50,-36,30,-45,55,23,85,-36,73,-45,36
28091,-2,35,3,63,-9,11,23,50,-36,30,-45,55,23,80,-36,67,-45,36
28107,-2,35,3,63,-9,11,23,50,-36,30,-45,55,23,75,-36,61,-45,36
28123,-2,35,3,63,-9,02,23,50,-36,30,-45,10,23,71,-36,57,-45,32
28139,-2,35,3,72,-9,02,23,50,-37,20,-45,10,23,68,-36,66,-45,29
28154,-2,35,3,72,-9,02,23,50,-37,20,-45,10,23,68,-36,74,-45,29
28170,-2,45,3,72,-9,02,24,50,-37,20,-45,10,23,80,-36,81,-45,29
28185,-2,45,3,72,-9,11,24,50,-37,20,-45,55,23,91,-36,87,-45,33
28200,-2,45,3,63,-9,11,24,50,-36,30,-45,55,24,00,-36,78,-45,36
28217,-2,45,3,63,-9,11,24,50,-36,30,-45,55,24,07,-36,71,-45,36
28232,-2,45,3,63,-9,11,24,50,-36,30,-45,55,24,14,-36,65,-45,36
28248,-2,45,3,72,-9,21,24,50,-37,20,-46,05,24,19,-36,73,-45,46
28263,-2,35,3,72,-9,21,23,50,-37,20,-46,05,24,09,-36,80,-45,55
28278,-2,35,3,63,-9,11,23,50,-36,30,-45,55,24,00,-36,73,-45,55
28293,-2,35,3,63,-9,11,23,50,-36,30,-45,55,23,92,-36,66,-45,55
28308,-2,35,3,72,-9,02,23,50,-37,20,-45,10,23,86,-36,74,-45,48
28323,-2,45,3,72,-9,02,24,50,-37,20,-45,10,23,96,-36,81,-45,43
28338,-2,45,3,72,-9,21,24,50,-37,20,-46,05,24,04,-36,87,-45,52
28353,-2,35,3,72,-9,21,23,50,-37,20,-46,05,23,96,-36,92,-45,60
28368,-2,35,3,63,-9,11,23,50,-36,30,-45,55,23,89,-36,83,-45,60
28383,-2,35,3,63,-9,11,23,50,-36,30,-45,55,23,83,-36,75,-45,60
28398,-2,35,3,63,-9,11,23,50,-36,30,-45,55,23,78,-36,68,-45,60
28413,-2,35,3,63,-9,11,23,50,-36,30,-45,55,23,74,-36,62,-45,60
28428,-2,35,3,72,-9,02,23,50,-37,20,-45,10,23,70,-36,71,-45,52
28443,-2,35,3,72,-9,02,23,50,-37,20,-45,10,23,67,-36,78,-45,46
28458,-2,35,3,72,-9,02,23,50,-37,20,-45,10,23,67,-36,85,-45,41
28474,-2,35,3,72,-9,02,23,50,-37,20,-45,10,23,67,-36,90,-45,36
28489,-2,35,3,72,-9,02,23,50,-37,20,-45,10,23,67,-36,94,-45,32
28504,-2,45,3,72,-9,02,24,50,-37,20,-45,10,23,80,-36,98,-45,29
28519,-2,45,3,63,-9,11,24,50,-36,30,-45,55,23,90,-36,88,-45,33
28534,-2,35,3,63,-9,11,23,50,-36,30,-45,55,23,84,-36,79,-45,36
28549,-2,35,3,72,-9,02,23,50,-37,20,-45,10,23,79,-36,85,-45,32
28564,-2,35,3,72,-9,02,23,50,-37,20,-45,10,23,75,-36,91,-45,29
28581,-2,35,3,63,-9,11,23,50,-36,30,-45,55,23,71,-36,82,-45,33
28596,-2,35,3,63,-9,11,23,50,-36,30,-45,55,23,68,-36,74,-45,36
28611,-2,35,3,72,-9,21,23,50,-37,20,-46,05,23,68,-36,81,-45,46
28626,-2,35,3,72,-9,21,23,50,-37,20,-46,05,23,68,-36,87,-45,55
28641,-2,35,3,63,-9,11,23,50,-36,30,-45,55,23,68,-36,78,-45,55
28656,-2,35,3,63,-9,11,23,50,-36,30,-45,55,23,68,-36,71,-45,55
28672,-2,35,3,72,-9,21,23,50,-37,20,-46,05,23,68,-36,78,-45,63
28687,-2,35,3,72,-9,21,23,50,-37,20,-46,05,23,68,-36,85,-45,69
28702,-2,35,3,72,-9,11,23,50,-37,20,-45,55,23,68,-36,90,-45,69
28717,-2,35,3,63,-9,11,23,50,-36,30,-45,55,23,68,-36,81,-45,69
28732,-2,45,3,72,-9,21,24,50,-37,20,-46,05,23,80,-36,87,-45,74
28747,-2,45,3,72,-9,21,24,50,-37,20,-46,05,23,91,-36,92,-45,79
28765,-2,35,3,72,-9,21,23,50,-37,20,-46,05,23,85,-36,96,-45,83
28780,-2,35,3,72,-9,21,23,50,-37,20,-46,05,23,79,-37,00,-45,86
28795,-2,35,3,72,-9,02,23,50,-37,20,-45,10,23,75,-37,03,-45,75
28810,-2,35,3,72,-9,02,23,50,-37,20,-45,10,23,71,-37,03,-45,65
28825,-2,35,3,72,-9,02,23,50,-37,20,-45,10,23,68,-37,03,-45,57
28840,-2,35,3,72,-9,02,23,50,-37,20,-45,10,23,68,-37,03,-45,50
28855,-2,35,3,63,-9,11,23,50,-36,30,-45,55,23,68,-36,92,-45,50
28870,-2,35,3,63,-9,11,23,50,-36,30,-45,55,23,68,-36,82,-45,50
28885,-2,35,3,63,-9,11,23,50,-36,30,-45,55,23,68,-36,75,-45,50
28900,-2,35,3,63,-9,11,23,50,-36,30,-45,55,23,68,-36,68,-45,50
28915,-2,45,3,63,-9,11,24,50,-36,30,-45,55,23,80,-36,62,-45,50
28930,-2,45,3,63,-9,11,24,50,-36,30,-45,55,23,91,-36,57,-45,50
28947,-2,35,3,72,-9,21,23,50,-37,20,-46,05,23,85,-36,67,-45,58
28963,-2,35,3,72,-9,11,23,50,-37,20,-45,55,23,79,-36,75,-45,58
28978,-2,35,3,63,-9,11,23,50,-36,30,-45,55,23,75,-36,68,-45,58
28993,-2,35,3,63,-9,02,23,50,-36,30,-45,10,23,71,-36,62,-45,51
29008,-2,35,3,72,-9,02,23,50,-37,20,-45,10,23,68,-36,71,-45,45
29023,-2,35,3,72,-9,21,23,50,-37,20,-46,05,23,68,-36,78,-45,54
29038,-2,35,3,72,-9,21,23,50,-37,20,-46,05,23,68,-36,85,-45,61
29053,-2,35,3,72,-9,11,23,50,-37,20,-45,55,23,68,-36,90,-45,61
29069,-2,45,3,63,-9,11,24,50,-36,30,-45,55,23,80,-36,81,-45,61
29084,-2,45,3,63,-9,02,24,50,-36,30,-45,10,23,91,-36,73,-45,54
29099,-2,35,3,72,-9,02,23,50,-37,20,-45,10,23,85,-36,80,-45,47
29114,-2,35,3,72,-8,82,23,50,-37,20,-44,10,23,79,-36,86,-45,27
29130,-2,35,3,63,-8,82,23,50,-36,30,-44,10,23,75,-36,78,-45,09
29146,-2,35,3,72,-9,21,23,50,-37,20,-46,05,23,71,-36,84,-45,23
29161,-2,45,3,72,-9,21,24,50,-37,20,-46,05,23,83,-36,90,-45,36
29176,-2,45,3,53,-8,72,24,50,-35,30,-43,60,23,93,-36,66,-45,09
29191,-1,96,3,53,-8,72,19,60,-35,30,-43,60,23,28,-36,45,-44,87
29206,-1,96,3,92,-9,41,19,60,-39,20,-47,05,22,73,-36,86,-45,20
29221,-2,45,3,92,-9,41,24,50,-39,20,-47,05,23,00,-37,21,-45,47
29236,-2,45,3,92,-9,41,24,50,-39,20,-47,05,23,22,-37,51,-45,71
29251,-2,45,3,92,-9,41,24,50,-39,20,-47,05,23,41,-37,77,-45,91
29266,-2,45,3,92,-8,82,24,50,-39,20,-44,10,23,58,-37,98,-45,64
29281,-2,45,3,43,-8,82,24,50,-34,30,-44,10,23,71,-37,43,-45,41
29296,-2,45,4,02,-9,31,24,50,-40,20,-46,55,23,83,-37,84,-45,58
29314,-2,35,4,02,-9,31,23,50,-40,20,-46,55,23,78,-38,20,-45,73
29331,-2,35,3,63,-9,41,23,50,-36,30,-47,05,23,74,-37,91,-45,92
29346,-2,65,3,63,-9,41,26,50,-36,30,-47,05,24,15,-37,67,-46,09
29361,-2,16,3,63,-8,82,21,60,-36,30,-44,10,23,77,-37,47,-45,79
29377,-2,16,3,63,-8,82,21,60,-36,30,-44,10,23,45,-37,29,-45,54
29393,-2,35,3,92,-9,21,23,50,-39,20,-46,05,23,45,-37,58,-45,62
29408,-2,35,3,92,-9,21,23,50,-39,20,-46,05,23,45,-37,82,-45,68
29423,-2,35,3,43,-8,82,23,50,-34,30,-44,10,23,45,-37,29,-45,44
29438,-2,35,3,43,-8,82,23,50,-34,30,-44,10,23,45,-36,84,-45,24
29453,-2,35,3,82,-9,11,23,50,-38,20,-45,55,23,45,-37,05,-45,29
29468,-2,35,3,82,-9,11,23,50,-38,20,-45,55,23,45,-37,22,-45,33
29483,-2,45,3,63,-8,82,24,50,-36,30,-44,10,23,60,-37,08,-45,14
29498,-2,45,3,63,-8,82,24,50,-36,30,-44,10,23,74,-36,96,-44,99
29513,-2,35,3,63,-9,11,23,50,-36,30,-45,55,23,70,-36,86,-45,07
29528,-2,35,3,63,-9,11,23,50,-36,30,-45,55,23,67,-36,78,-45,14
29543,-2,35,3,72,-9,21,23,50,-37,20,-46,05,23,67,-36,84,-45,28
29558,-2,35,3,72,-9,21,23,50,-37,20,-46,05,23,67,-36,90,-45,39
29573,-2,45,3,72,-9,21,24,50,-37,20,-46,05,23,80,-36,94,-45,49
29588,-2,45,3,72,-9,21,24,50,-37,20,-46,05,23,90,-36,98,-45,58
29603,-2,35,3,72,-9,02,23,50,-37,20,-45,10,23,84,-37,01,-45,51
29618,-2,35,3,72,-9,02,23,50,-37,20,-45,10,23,79,-37,01,-45,44
29633,-2,45,3,72,-9,21,24,50,-37,20,-46,05,23,90,-37,01,-45,54
29648,-2,45,3,72,-9,21,24,50,-37,20,-46,05,23,99,-37,01,-45,61
29663,-2,45,3,72,-9,21,24,50,-37,20,-46,05,24,06,-37,01,-45,68
29678,-2,45,3,72,-9,21,24,50,-37,20,-46,05,24,13,-37,01,-45,73
29693,-2,35,3,63,-9,11,23,50,-36,30,-45,55,24,04,-36,91,-45,73
29709,-2,35,3,63,-9,11,23,50,-36,30,-45,55,23,95,-36,82,-45,73
29724,-2,35,3,72,-9,21,23,50,-37,20,-46,05,23,89,-36,87,-45,78
29739,-2,35,3,72,-9,21,23,50,-37,20,-46,05,23,83,-36,92,-45,82
29754,-2,45,3,63,-9,11,24,50,-36,30,-45,55,23,93,-36,83,-45,78
29770,-2,45,3,63,-9,11,24,50,-36,30,-45,55,24,01,-36,75,-45,75
29786,-2,35,3,72,-9,02,23,50,-37,20,-45,10,23,94,-36,82,-45,65
29801,-2,35,3,72,-9,11,23,50,-37,20,-45,55,23,87,-36,87,-45,65
29816,-2,35,3,63,-9,11,23,50,-36,30,-45,55,23,82,-36,79,-45,65
29831,-2,35,3,63,-9,11,23,50,-36,30,-45,55,23,77,-36,72,-45,65
29846,-2,35,3,82,-9,11,23,50,-38,20,-45,55,23,73,-36,94,-45,65
29861,-2,35,3,82,-9,11,23,50,-38,20,-45,55,23,69,-37,13,-45,65
29876,-2,35,3,82,-9,11,23,50,-38,20,-45,55,23,69,-37,29,-45,65
29892,-2,35,3,82,-9,11,23,50,-38,20,-45,55,23,69,-37,42,-45,65
29907,-2,35,3,63,-9,11,23,50,-36,30,-45,55,23,69,-37,26,-45,65
29922,-2,35,3,63,-9,11,23,50,-36,30,-45,55,23,69,-37,11,-45,65
29937,-2,35,3,63,-9,11,23,50,-36,30,-45,55,23,69,-36,99,-45,65
29952,-2,35,3,63,-9,11,23,50,-36,30,-45,55,23,69,-36,89,-45,65
29967,-2,35,3,63,-9,11,23,50,-36,30,-45,55,23,69,-36,80,-45,65
29982,-2,35,3,63,-9,21,23,50,-36,30,-46,05,23,69,-36,72,-45,71
29997,-2,35,3,72,-9,21,23,50,-37,20,-46,05,23,69,-36,80,-45,76
30012,-2,35,3,72,-9,02,23,50,-37,20,-45,10,23,69,-36,86,-45,66
30027,-2,35,3,72,-9,02,23,50,-37,20,-45,10,23,69,-36,91,-45,58
30042,-2,35,3,72,-9,21,23,50,-37,20,-46,05,23,69,-36,95,-45,65
30057,-2,35,3,72,-9,21,23,50,-37,20,-46,05,23,69,-36,99,-45,71
30073,-2,35,3,72,-9,21,23,50,-37,20,-46,05,23,69,-37,02,-45,76
30090,-2,35,3,72,-9,21,23,50,-37,20,-46,05,23,69,-37,02,-45,80
30106,-2,35,3,72,-9,21,23,50,-37,20,-46,05,23,69,-37,02,-45,84
30121,-2,35,3,72,-9,21,23,50,-37,20,-46,05,23,69,-37,02,-45,87
30136,-2,35,3,72,-9,21,23,50,-37,20,-46,05,23,69,-37,02,-45,87
30151,-2,45,3,72,-9,21,24,50,-37,20,-46,05,23,82,-37,02,-45,87
30166,-2,45,3,72,-9,02,24,50,-37,20,-45,10,23,92,-37,02,-45,76
30181,-2,35,3,72,-9,02,23,50,-37,20,-45,10,23,86,-37,02,-45,66
30196,-2,35,3,72,-9,21,23,50,-37,20,-46,05,23,80,-37,02,-45,72
30211,-2,45,3,72,-9,21,24,50,-37,20,-46,05,23,91,-37,02,-45,77
30226,-2,45,3,72,-9,21,24,50,-37,20,-46,05,24,00,-37,02,-45,81
30241,-2,35,3,72,-9,21,23,50,-37,20,-46,05,23,92,-37,02,-45,85
30256,-2,35,3,72,-9,02,23,50,-37,20,-45,10,23,86,-37,02,-45,73
30271,-2,35,3,72,-9,02,23,50,-37,20,-45,10,23,80,-37,02,-45,64
30286,-2,35,3,72,-9,21,23,50,-37,20,-46,05,23,76,-37,02,-45,70
30303,-2,35,3,72,-9,21,23,50,-37,20,-46,05,23,72,-37,02,-45,75
30318,-2,35,3,72,-9,02,23,50,-37,20,-45,10,23,69,-37,02,-45,65
30333,-2,35,3,72,-9,02,23,50,-37,20,-45,10,23,69,-37,02,-45,57
30348,-2,35,3,63,-9,11,23,50,-36,30,-45,55,23,69,-36,91,-45,57
30363,-2,35,3,63,-9,11,23,50,-36,30,-45,55,23,69,-36,82,-45,57
30378,-2,35,3,63,-9,11,23,50,-36,30,-45,55,23,69,-36,74,-45,57
30395,-2,35,3,63,-9,11,23,50,-36,30,-45,55,23,69,-36,68,-45,57
30414,-2,35,3,63,-9,11,23,50,-36,30,-45,55,23,69,-36,62,-45,57
30429,-2,35,3,63,-9,11,23,50,-36,30,-45,55,23,69,-36,57,-45,57
30444,-2,35,3,72,-9,02,23,50,-37,20,-45,10,23,69,-36,67,-45,50
30459,-2,35,3,72,-9,02,23,50,-37,20,-45,10,23,69,-36,75,-45,44
30474,-2,45,3,72,-9,02,24,50,-37,20,-45,10,23,81,-36,81,-45,39
30490,-2,45,3,72,-9,02,24,50,-37,20,-45,10,23,91,-36,87,-45,35
30506,-2,45,3,72,-9,02,24,50,-37,20,-45,10,24,00,-36,92,-45,31
30521,-2,45,3,72,-9,02,24,50,-37,20,-45,10,24,08,-36,96,-45,28
30536,-2,45,3,72,-9,02,24,50,-37,20,-45,10,24,14,-37,00,-45,28
30553,-2,45,3,72,-9,11,24,50,-37,20,-45,55,24,19,-37,03,-45,32
30568,-2,35,3,82,-9,11,23,50,-38,20,-45,55,24,09,-37,20,-45,35
30583,-2,35,3,82,-9,11,23,50,-38,20,-45,55,24,00,-37,35,-45,35
30598,-2,35,3,63,-9,11,23,50,-36,30,-45,55,23,93,-37,20,-45,35
30613,-2,35,3,63,-9,21,23,50,-36,30,-46,05,23,86,-37,06,-45,46
30628,-2,35,3,72,-9,21,23,50,-37,20,-46,05,23,81,-37,06,-45,55
30643,-2,35,3,72,-9,02,23,50,-37,20,-45,10,23,76,-37,06,-45,48
30658,-2,35,3,72,-9,02,23,50,-37,20,-45,10,23,72,-37,06,-45,42
30673,-2,35,3,72,-9,11,23,50,-37,20,-45,55,23,69,-37,06,-45,42
30690,-2,35,3,63,-9,11,23,50,-36,30,-45,55,23,69,-36,95,-45,42
30705,-2,35,3,63,-9,02,23,50,-36,30,-45,10,23,69,-36,85,-45,37
30724,-2,35,3,72,-9,02,23,50,-37,20,-45,10,23,69,-36,90,-45,33
30739,-2,35,3,72,-9,02,23,50,-37,20,-45,10,23,69,-36,95,-45,30
30754,-2,45,3,72,-9,02,24,50,-37,20,-45,10,23,81,-36,99,-45,30
30769,-2,45,3,72,-9,02,24,50,-37,20,-45,10,23,91,-37,02,-45,30
30785,-2,35,3,72,-9,02,23,50,-37,20,-45,10,23,85,-37,02,-45,30
30804,-2,35,3,72,-9,21,23,50,-37,20,-46,05,23,80,-37,02,-45,41
30820,-2,35,3,72,-9,21,23,50,-37,20,-46,05,23,75,-37,02,-45,51
30837,-2,35,3,72,-9,21,23,50,-37,20,-46,05,23,72,-37,02,-45,59
30853,-2,35,3,72,-9,02,23,50,-37,20,-45,10,23,68,-37,02,-45,52
30868,-2,35,3,72,-9,02,23,50,-37,20,-45,10,23,68,-37,02,-45,45
30883,-2,35,3,72,-9,11,23,50,-37,20,-45,55,23,68,-37,02,-45,45
30899,-2,35,3,82,-9,11,23,50,-38,20,-45,55,23,68,-37,19,-45,45
30914,-2,35,3,82,-9,11,23,50,-38,20,-45,55,23,68,-37,35,-45,45
30929,-2,35,3,82,-9,11,23,50,-38,20,-45,55,23,68,-37,47,-45,45
30944,-2,35,3,82,-9,02,23,50,-38,20,-45,10,23,68,-37,58,-45,40
30959,-2,35,3,72,-9,02,23,50,-37,20,-45,10,23,68,-37,53,-45,35
30974,-2,35,3,72,-9,11,23,50,-37,20,-45,55,23,68,-37,48,-45,35
30989,-2,35,3,63,-9,11,23,50,-36,30,-45,55,23,68,-37,30,-45,35
31004,-2,35,3,63,-9,11,23,50,-36,30,-45,55,23,68,-37,15,-45,35
31020,-2,35,3,63,-9,11,23,50,-36,30,-45,55,23,68,-37,02,-45,35
31035,-2,35,3,63,-9,21,23,50,-36,30,-46,05,23,68,-36,91,-45,46
31050,-2,65,3,72,-9,21,26,50,-37,20,-46,05,24,11,-36,96,-45,55
31065,-2,65,3,72,-9,11,26,50,-37,20,-45,55,24,47,-36,99,-45,55
31080,-2,35,3,82,-9,11,23,50,-38,20,-45,55,24,32,-37,17,-45,55
31099,-2,35,3,63,-9,11,23,50,-36,30,-45,55,24,20,-37,04,-45,55
31120,-2,35,3,63,-9,11,23,50,-36,30,-45,55,24,09,-36,93,-45,55
31135,-2,35,3,63,-9,11,23,50,-36,30,-45,55,24,00,-36,84,-45,55
31150,-2,35,3,63,-9,11,23,50,-36,30,-45,55,23,93,-36,76,-45,55
31165,-2,35,3,63,-9,11,23,50,-36,30,-45,55,23,86,-36,69,-45,55
31180,-2,35,3,63,-9,11,23,50,-36,30,-45,55,23,81,-36,63,-45,55
31195,-2,35,3,63,-9,11,23,50,-36,30,-45,55,23,76,-36,58,-45,55
31210,-2,35,3,63,-9,11,23,50,-36,30,-45,55,23,72,-36,54,-45,55
31225,-2,35,3,72,-9,21,23,50,-37,20,-46,05,23,69,-36,64,-45,62
31240,-2,35,3,72,-9,21,23,50,-37,20,-46,05,23,69,-36,72,-45,69
31255,-2,35,3,63,-9,11,23,50,-36,30,-45,55,23,69,-36,66,-45,69
31271,-2,35,3,63,-9,21,23,50,-36,30,-46,05,23,69,-36,60,-45,74
31287,-2,35,3,72,-9,21,23,50,-37,20,-46,05,23,69,-36,69,-45,79
31303,-2,35,3,72,-9,11,23,50,-37,20,-45,55,23,69,-36,77,-45,75
31318,-2,35,3,82,-9,11,23,50,-38,20,-45,55,23,69,-36,98,-45,72
31333,-2,35,3,82,-9,11,23,50,-38,20,-45,55,23,69,-37,17,-45,72
31348,-2,35,3,82,-9,11,23,50,-38,20,-45,55,23,69,-37,32,-45,72
31363,-2,35,3,82,-9,11,23,50,-38,20,-45,55,23,69,-37,45,-45,72
31378,-2,35,3,63,-9,11,23,50,-36,30,-45,55,23,69,-37,28,-45,72
31393,-2,35,3,63,-9,11,23,50,-36,30,-45,55,23,69,-37,13,-45,72
31408,-2,35,3,63,-9,11,23,50,-36,30,-45,55,23,69,-37,01,-45,72
31423,-2,35,3,63,-9,11,23,50,-36,30,-45,55,23,69,-36,90,-45,72
31438,-2,45,3,63,-9,11,24,50,-36,30,-45,55,23,81,-36,81,-45,72
31453,-2,45,3,63,-9,11,24,50,-36,30,-45,55,23,91,-36,74,-45,72
31468,-2,45,3,63,-9,11,24,50,-36,30,-45,55,24,00,-36,67,-45,72
31483,-2,45,3,63,-9,11,24,50,-36,30,-45,55,24,08,-36,61,-45,72
31500,-2,16,3,63,-9,11,21,60,-36,30,-45,55,23,71,-36,57,-45,72
31517,-2,16,3,63,-8,82,21,60,-36,30,-44,10,23,39,-36,53,-45,48
31534,-2,45,3,63,-8,82,24,50,-36,30,-44,10,23,56,-36,49,-45,27
31550,-2,45,3,72,-9,02,24,50,-37,20,-45,10,23,70,-36,60,-45,27
31565,-2,35,3,72,-9,02,23,50,-37,20,-45,10,23,70,-36,69,-45,27
31580,-2,35,3,72,-9,02,23,50,-37,20,-45,10,23,70,-36,77,-45,27
31599,-2,35,3,72,-9,02,23,50,-37,20,-45,10,23,70,-36,83,-45,27
31615,-2,45,3,72,-9,02,24,50,-37,20,-45,10,23,82,-36,89,-45,27
31630,-2,45,3,72,-9,02,24,50,-37,20,-45,10,23,92,-36,93,-45,27
31645,-2,45,3,63,-9,11,24,50,-36,30,-45,55,24,01,-36,84,-45,31
31660,-2,45,3,63,-9,11,24,50,-36,30,-45,55,24,08,-36,76,-45,35
31676,-2,45,3,63,-9,11,24,50,-36,30,-45,55,24,14,-36,69,-45,38
31693,-2,45,3,63,-9,11,24,50,-36,30,-45,55,24,20,-36,63,-45,38
31708,-2,45,3,63,-9,11,24,50,-36,30,-45,55,24,24,-36,58,-45,38
31723,-2,45,3,63,-9,11,24,50,-36,30,-45,55,24,28,-36,54,-45,38
31738,-2,35,3,63,-9,11,23,50,-36,30,-45,55,24,16,-36,50,-45,38
31753,-2,35,3,63,-9,11,23,50,-36,30,-45,55,24,06,-36,47,-45,38
31768,-2,35,3,63,-9,11,23,50,-36,30,-45,55,23,98,-36,47,-45,38
31783,-2,35,3,63,-9,02,23,50,-36,30,-45,10,23,91,-36,47,-45,34
31798,-2,35,3,72,-9,02,23,50,-37,20,-45,10,23,85,-36,58,-45,30
31813,-2,35,3,72,-9,21,23,50,-37,20,-46,05,23,79,-36,67,-45,41
31828,-2,35,3,72,-9,21,23,50,-37,20,-46,05,23,75,-36,75,-45,51
31843,-2,35,3,72,-9,21,23,50,-37,20,-46,05,23,71,-36,82,-45,59
31858,-2,45,3,72,-9,21,24,50,-37,20,-46,05,23,83,-36,88,-45,66
31873,-2,45,3,72,-9,21,24,50,-37,20,-46,05,23,93,-36,93,-45,72
31891,-2,45,3,72,-9,21,24,50,-37,20,-46,05,24,02,-36,97,-45,77
31907,-2,45,3,63,-9,11,24,50,-36,30,-45,55,24,09,-36,87,-45,74
31922,-2,35,3,63,-9,11,23,50,-36,30,-45,55,24,00,-36,78,-45,74
31937,-2,35,3,72,-9,21,23,50,-37,20,-46,05,23,93,-36,84,-45,78
31952,-2,16,3,72,-9,21,21,60,-37,20,-46,05,23,58,-36,90,-45,82
31967,-2,16,3,72,-9,02,21,60,-37,20,-45,10,23,28,-36,94,-45,71
31982,-2,45,3,72,-9,02,24,50,-37,20,-45,10,23,46,-36,98,-45,62
31997,-2,45,3,63,-9,11,24,50,-36,30,-45,55,23,62,-36,88,-45,62
32012,-2,16,3,63,-9,11,21,60,-36,30,-45,55,23,32,-36,79,-45,62
32027,-2,16,3,72,-9,02,21,60,-37,20,-45,10,23,06,-36,85,-45,54
32042,-2,35,3,72,-9,02,23,50,-37,20,-45,10,23,12,-36,91,-45,48
32057,-2,35,3,63,-9,11,23,50,-36,30,-45,55,23,18,-36,81,-45,48
32072,-2,35,3,63,-9,11,23,50,-36,30,-45,55,23,23,-36,74,-45,48
32087,-2,35,3,72,-9,21,23,50,-37,20,-46,05,23,27,-36,81,-45,56
32104,-2,35,3,72,-9,21,23,50,-37,20,-46,05,23,30,-36,87,-45,64
32119,-2,35,3,72,-9,02,23,50,-37,20,-45,10,23,30,-36,92,-45,56
32134,-2,35,3,72,-9,02,23,50,-37,20,-45,10,23,30,-36,96,-45,49
32149,-2,35,3,63,-9,11,23,50,-36,30,-45,55,23,30,-36,86,-45,49
32164,-2,45,3,63,-9,11,24,50,-36,30,-45,55,23,48,-36,78,-45,49
32181,-2,45,3,72,-9,02,24,50,-37,20,-45,10,23,64,-36,84,-45,43
32196,-2,35,3,72,-9,02,23,50,-37,20,-45,10,23,64,-36,89,-45,38
32211,-2,35,3,72,-9,02,23,50,-37,20,-45,10,23,64,-36,94,-45,34
32226,-2,35,3,72,-9,02,23,50,-37,20,-45,10,23,64,-36,98,-45,30
32241,-2,35,3,72,-9,02,23,50,-37,20,-45,10,23,64,-37,01,-45,27
32256,-2,35,3,72,-9,02,23,50,-37,20,-45,10,23,64,-37,01,-45,27
32271,-2,35,3,63,-9,11,23,50,-36,30,-45,55,23,64,-36,91,-45,31
32286,-2,35,3,63,-9,11,23,50,-36,30,-45,55,23,64,-36,81,-45,35
32303,-2,35,3,82,-9,11,23,50,-38,20,-45,55,23,64,-37,02,-45,38
32318,-2,35,3,82,-9,11,23,50,-38,20,-45,55,23,64,-37,20,-45,38
32333,-2,45,3,63,-9,11,24,50,-36,30,-45,55,23,77,-37,06,-45,38
32348,-2,45,3,63,-9,11,24,50,-36,30,-45,55,23,88,-36,95,-45,38
32363,-2,35,3,72,-9,02,23,50,-37,20,-45,10,23,82,-36,99,-45,34
32378,-2,35,3,72,-9,02,23,50,-37,20,-45,10,23,77,-37,02,-45,30
32393,-2,45,3,72,-9,21,24,50,-37,20,-46,05,23,88,-37,02,-45,41
32408,-2,45,3,72,-9,21,24,50,-37,20,-46,05,23,97,-37,02,-45,51
32423,-2,45,3,72,-9,21,24,50,-37,20,-46,05,24,05,-37,02,-45,59
32438,-2,45,3,72,-9,21,24,50,-37,20,-46,05,24,12,-37,02,-45,66
32453,-2,45,3,82,-9,11,24,50,-38,20,-45,55,24,18,-37,20,-45,66
32468,-2,45,3,82,-9,11,24,50,-38,20,-45,55,24,23,-37,35,-45,66
32483,-2,35,3,82,-9,11,23,50,-38,20,-45,55,24,12,-37,47,-45,66
32498,-2,35,3,82,-9,11,23,50,-38,20,-45,55,24,02,-37,58,-45,66
32516,-2,35,3,72,-9,02,23,50,-37,20,-45,10,23,95,-37,53,-45,58
32531,-2,35,3,72,-9,02,23,50,-37,20,-45,10,23,88,-37,48,-45,50
32547,-2,35,3,82,-9,11,23,50,-38,20,-45,55,23,82,-37,59,-45,50
32563,-2,35,3,82,-9,02,23,50,-38,20,-45,10,23,77,-37,68,-45,44
32579,-2,45,3,72,-9,02,24,50,-37,20,-45,10,23,88,-37,61,-45,39
32594,-2,45,3,72,-8,72,24,50,-37,20,-43,60,23,98,-37,55,-45,12
32610,-2,35,3,53,-8,72,23,50,-35,30,-43,60,23,90,-37,21,-44,89
32626,-2,35,3,53,-8,72,23,50,-35,30,-43,60,23,84,-36,92,-44,70
32641,-2,35,3,53,-8,72,23,50,-35,30,-43,60,23,79,-36,68,-44,54
32659,-2,35,3,72,-9,02,23,50,-37,20,-45,10,23,75,-36,76,-44,62
32674,-2,35,3,72,-9,02,23,50,-37,20,-45,10,23,71,-36,82,-44,69
32689,-2,35,3,63,-9,41,23,50,-36,30,-47,05,23,68,-36,74,-45,05
32704,-2,65,3,63,-9,41,26,50,-36,30,-47,05,24,10,-36,68,-45,35
32719,-2,65,3,53,-8,53,26,50,-35,30,-42,65,24,46,-36,47,-44,94
32734,-2,35,3,53,-8,53,23,50,-35,30,-42,65,24,32,-36,30,-44,60
32749,-2,35,3,92,-8,82,23,50,-39,20,-44,10,24,20,-36,73,-44,52
32764,-2,35,3,92,-8,82,23,50,-39,20,-44,10,24,09,-37,10,-44,46
32780,-2,35,3,53,-8,92,23,50,-35,30,-44,60,24,00,-36,83,-44,46
32795,-2,45,3,53,-8,92,24,50,-35,30,-44,60,24,08,-36,60,-44,46
32810,-2,45,3,53,-8,92,24,50,-35,30,-44,60,24,14,-36,41,-44,46
32825,-2,45,3,53,-8,92,24,50,-35,30,-44,60,24,19,-36,24,-44,46
32841,-2,45,3,63,-8,82,24,50,-36,30,-44,10,24,24,-36,24,-44,41
32856,-2,45,3,63,-8,82,24,50,-36,30,-44,10,24,28,-36,24,-44,36
32871,-2,35,3,82,-9,31,23,50,-38,20,-46,55,24,16,-36,53,-44,69
32886,-2,35,3,82,-9,31,23,50,-38,20,-46,55,24,06,-36,78,-44,97
32901,-2,45,3,63,-8,82,24,50,-36,30,-44,10,24,13,-36,71,-44,84
32917,-2,45,3,63,-8,82,24,50,-36,30,-44,10,24,18,-36,65,-44,73
32936,-2,45,3,63,-8,82,24,50,-36,30,-44,10,24,23,-36,60,-44,63
32952,-2,45,3,63,-9,21,24,50,-36,30,-46,05,24,27,-36,55,-44,85
32967,-2,35,3,72,-9,21,23,50,-37,20,-46,05,24,16,-36,65,-45,03
32984,-2,35,3,72,-9,02,23,50,-37,20,-45,10,24,06,-36,73,-45,03
32999,-2,45,3,92,-9,02,24,50,-39,20,-45,10,24,12,-37,10,-45,03
33017,-2,45,3,53,-8,53,24,50,-35,30,-42,65,24,18,-36,83,-44,67
33033,-2,35,3,53,-8,53,23,50,-35,30,-42,65,24,08,-36,60,-44,37
33048,-2,35,3,53,-8,53,23,50,-35,30,-42,65,23,99,-36,41,-44,11
33063,-2,35,3,53,-8,53,23,50,-35,30,-42,65,23,92,-36,24,-43,89
33078,-2,35,3,82,-9,31,23,50,-38,20,-46,55,23,86,-36,53,-44,29
33093,-2,35,3,82,-9,31,23,50,-38,20,-46,55,23,80,-36,78,-44,63
33108,-2,35,3,63,-8,82,23,50,-36,30,-44,10,23,76,-36,71,-44,55
33123,-2,35,3,63,-8,82,23,50,-36,30,-44,10,23,72,-36,65,-44,48
33138,-2,35,3,72,-9,02,23,50,-37,20,-45,10,23,69,-36,73,-44,57
33153,-2,35,3,72,-9,02,23,50,-37,20,-45,10,23,69,-36,80,-44,65
33170,-2,45,3,72,-9,21,24,50,-37,20,-46,05,23,81,-36,86,-44,86
33185,-2,45,3,72,-9,21,24,50,-37,20,-46,05,23,91,-36,91,-45,04
33200,-2,45,3,63,-9,11,24,50,-36,30,-45,55,24,00,-36,82,-45,12
33215,-2,35,3,63,-9,11,23,50,-36,30,-45,55,23,92,-36,74,-45,18
33230,-2,35,3,63,-9,11,23,50,-36,30,-45,55,23,86,-36,68,-45,24
33245,-2,35,3,63,-9,11,23,50,-36,30,-45,55,23,81,-36,62,-45,28
33260,-2,35,3,82,-9,11,23,50,-38,20,-45,55,23,76,-36,86,-45,32
33275,-2,35,3,82,-9,11,23,50,-38,20,-45,55,23,72,-37,06,-45,36
33290,-2,35,3,72,-9,21,23,50,-37,20,-46,05,23,69,-37,06,-45,46
33305,-2,35,3,72,-9,21,23,50,-37,20,-46,05,23,69,-37,06,-45,55
33321,-2,35,3,72,-9,02,23,50,-37,20,-45,10,23,69,-37,06,-45,48
33336,-2,35,3,72,-9,02,23,50,-37,20,-45,10,23,69,-37,06,-45,43
33351,-2,35,3,72,-9,21,23,50,-37,20,-46,05,23,69,-37,06,-45,52
33366,-2,35,3,72,-9,21,23,50,-37,20,-46,05,23,69,-37,06,-45,60
33381,-2,35,3,63,-9,11,23,50,-36,30,-45,55,23,69,-36,94,-45,60
33396,-2,35,3,63,-9,11,23,50,-36,30,-45,55,23,69,-36,85,-45,60
33411,-2,35,3,72,-9,02,23,50,-37,20,-45,10,23,69,-36,90,-45,52
33426,-2,35,3,72,-9,02,23,50,-37,20,-45,10,23,69,-36,95,-45,46
33441,-2,35,3,82,-9,11,23,50,-38,20,-45,55,23,69,-37,13,-45,46
33458,-2,35,3,82,-9,11,23,50,-38,20,-45,55,23,69,-37,29,-45,46
33473,-2,35,3,82,-9,11,23,50,-38,20,-45,55,23,69,-37,43,-45,46
33488,-2,35,3,82,-9,11,23,50,-38,20,-45,55,23,69,-37,55,-45,46
33504,-2,45,3,72,-9,21,24,50,-37,20,-46,05,23,81,-37,49,-45,55
33520,-2,45,3,72,-9,21,24,50,-37,20,-46,05,23,91,-37,45,-45,62
33535,-2,35,3,82,-9,11,23,50,-38,20,-45,55,23,85,-37,56,-45,62
33551,-2,35,3,82,-9,21,23,50,-38,20,-46,05,23,80,-37,66,-45,69
33567,-2,35,3,72,-9,21,23,50,-37,20,-46,05,23,75,-37,59,-45,74
33582,-2,35,3,72,-9,02,23,50,-37,20,-45,10,23,72,-37,53,-45,65
33597,-2,35,3,72,-9,02,23,50,-37,20,-45,10,23,68,-37,48,-45,56
33614,-2,35,3,72,-9,02,23,50,-37,20,-45,10,23,68,-37,44,-45,49
33629,-2,45,3,72,-9,02,24,50,-37,20,-45,10,23,81,-37,40,-45,44
33644,-2,45,3,72,-9,11,24,50,-37,20,-45,55,23,91,-37,37,-45,44
33659,-2,35,3,63,-9,11,23,50,-36,30,-45,55,23,85,-37,21,-45,44
33674,-2,35,3,63,-9,21,23,50,-36,30,-46,05,23,80,-37,07,-45,53
33689,-2,45,3,72,-9,21,24,50,-37,20,-46,05,23,90,-37,07,-45,61
33704,-2,45,3,72,-9,02,24,50,-37,20,-45,10,23,99,-37,07,-45,53
33719,-2,35,3,72,-9,02,23,50,-37,20,-45,10,23,92,-37,07,-45,47
33734,-2,35,3,72,-9,02,23,50,-37,20,-45,10,23,86,-37,07,-45,41
33749,-2,35,3,72,-9,02,23,50,-37,20,-45,10,23,80,-37,07,-45,36
33765,-2,35,3,72,-9,21,23,50,-37,20,-46,05,23,76,-37,07,-45,47
33780,-2,45,3,72,-9,21,24,50,-37,20,-46,05,23,87,-37,07,-45,55
33795,-2,45,3,72,-9,02,24,50,-37,20,-45,10,23,96,-37,07,-45,49
33810,-2,35,3,72,-9,02,23,50,-37,20,-45,10,23,89,-37,07,-45,43
33825,-2,35,3,72,-9,21,23,50,-37,20,-46,05,23,83,-37,07,-45,52
33840,-2,35,3,72,-9,21,23,50,-37,20,-46,05,23,78,-37,07,-45,60
33855,-2,35,3,72,-9,21,23,50,-37,20,-46,05,23,74,-37,07,-45,67
33870,-2,35,3,72,-9,21,23,50,-37,20,-46,05,23,71,-37,07,-45,73
33885,-2,35,3,72,-9,21,23,50,-37,20,-46,05,23,67,-37,07,-45,77
33900,-2,35,3,72,-9,21,23,50,-37,20,-46,05,23,67,-37,07,-45,82
33916,-2,35,3,63,-9,11,23,50,-36,30,-45,55,23,67,-36,96,-45,78
33931,-1,96,3,63,-9,11,19,60,-36,30,-45,55,23,06,-36,86,-45,74
33946,-1,96,3,72,-9,21,19,60,-37,20,-46,05,22,54,-36,91,-45,79
33961,-2,16,3,72,-9,21,21,60,-37,20,-46,05,22,40,-36,95,-45,83
33976,-2,16,3,82,-9,31,21,60,-38,20,-46,55,22,28,-37,14,-45,94
33991,-2,45,3,82,-9,31,24,50,-38,20,-46,55,22,61,-37,30,-46,03
34006,-2,45,3,82,-8,82,24,50,-38,20,-44,10,22,90,-37,43,-45,74
34021,-2,16,3,63,-8,82,21,60,-36,30,-44,10,22,70,-37,26,-45,49
34036,-2,16,3,63,-9,11,21,60,-36,30,-45,55,22,54,-37,12,-45,49
34051,-2,35,3,82,-9,11,23,50,-38,20,-45,55,22,68,-37,28,-45,49
34067,-2,35,3,72,-9,02,23,50,-37,20,-45,10,22,80,-37,28,-45,43
34082,-2,35,3,72,-9,02,23,50,-37,20,-45,10,22,91,-37,28,-45,38
34097,-2,35,3,72,-9,02,23,50,-37,20,-45,10,23,00,-37,28,-45,34
34112,-2,35,3,72,-9,02,23,50,-37,20,-45,10,23,07,-37,28,-45,31
34127,-2,35,3,72,-9,21,23,50,-37,20,-46,05,23,14,-37,28,-45,42
34142,-2,16,3,72,-9,21,21,60,-37,20,-46,05,22,91,-37,28,-45,51
34157,-2,16,3,72,-9,02,21,60,-37,20,-45,10,22,71,-37,28,-45,45
34179,-2,35,3,72,-9,02,23,50,-37,20,-45,10,22,83,-37,28,-45,40
34196,-2,35,3,63,-9,11,23,50,-36,30,-45,55,22,93,-37,13,-45,40
34213,-2,35,3,63,-9,21,23,50,-36,30,-46,05,23,02,-37,01,-45,50
34228,-2,35,3,72,-9,21,23,50,-37,20,-46,05,23,09,-37,01,-45,58
34243,-2,35,3,72,-9,02,23,50,-37,20,-45,10,23,15,-37,01,-45,51
34258,-2,35,3,72,-9,02,23,50,-37,20,-45,10,23,20,-37,01,-45,45
34273,-2,35,3,72,-9,21,23,50,-37,20,-46,05,23,25,-37,01,-45,54
34288,-2,35,3,72,-9,21,23,50,-37,20,-46,05,23,28,-37,01,-45,61
34303,-2,35,3,72,-9,21,23,50,-37,20,-46,05,23,32,-37,01,-45,68
34318,-2,35,3,72,-9,21,23,50,-37,20,-46,05,23,32,-37,01,-45,73
34336,-2,35,3,72,-9,02,23,50,-37,20,-45,10,23,32,-37,01,-45,64
34355,-2,35,3,72,-9,02,23,50,-37,20,-45,10,23,32,-37,01,-45,56
34376,-2,35,3,63,-9,11,23,50,-36,30,-45,55,23,32,-36,90,-45,56
34392,-2,35,3,63,-9,11,23,50,-36,30,-45,55,23,32,-36,81,-45,56
34410,-2,35,3,63,-9,11,23,50,-36,30,-45,55,23,32,-36,74,-45,56
34425,-2,35,3,63,-9,11,23,50,-36,30,-45,55,23,32,-36,67,-45,56
34440,-2,35,3,63,-9,11,23,50,-36,30,-45,55,23,32,-36,61,-45,56
34455,-2,35,3,63,-9,11,23,50,-36,30,-45,55,23,32,-36,57,-45,56
34470,-2,35,3,63,-9,11,23,50,-36,30,-45,55,23,32,-36,53,-45,56
34488,-2,35,3,63,-9,11,23,50,-36,30,-45,55,23,32,-36,49,-45,56
34503,-2,35,3,63,-9,11,23,50,-36,30,-45,55,23,32,-36,49,-45,56
34521,-2,35,3,72,-9,21,23,50,-37,20,-46,05,23,32,-36,60,-45,63
34536,-2,35,3,72,-9,21,23,50,-37,20,-46,05,23,32,-36,69,-45,69
34552,-2,35,3,63,-9,11,23,50,-36,30,-45,55,23,32,-36,63,-45,69
34567,-2,35,3,63,-9,11,23,50,-36,30,-45,55,23,32,-36,58,-45,69
34582,-2,35,3,82,-9,11,23,50,-38,20,-45,55,23,32,-36,82,-45,69
34597,-2,35,3,82,-9,11,23,50,-38,20,-45,55,23,32,-37,03,-45,69
34612,-2,35,3,63,-9,11,23,50,-36,30,-45,55,23,32,-36,92,-45,69
34627,-2,35,3,63,-9,11,23,50,-36,30,-45,55,23,32,-36,83,-45,69
34642,-2,35,3,72,-9,02,23,50,-37,20,-45,10,23,32,-36,88,-45,61
34660,-2,35,3,72,-9,02,23,50,-37,20,-45,10,23,32,-36,93,-45,53
34676,-2,45,3,63,-9,11,24,50,-36,30,-45,55,23,49,-36,84,-45,53
34691,-2,45,3,63,-9,11,24,50,-36,30,-45,55,23,65,-36,76,-45,53
34706,-2,45,3,63,-9,11,24,50,-36,30,-45,55,23,77,-36,69,-45,53
34721,-2,45,3,63,-9,11,24,50,-36,30,-45,55,23,88,-36,63,-45,53
34739,-2,45,3,63,-9,11,24,50,-36,30,-45,55,23,98,-36,58,-45,53
34757,-2,45,3,72,-9,02,24,50,-37,20,-45,10,24,05,-36,67,-45,47
34775,-2,35,3,72,-9,02,23,50,-37,20,-45,10,23,97,-36,75,-45,41
34791,-2,35,3,63,-9,11,23,50,-36,30,-45,55,23,90,-36,68,-45,41
34808,-2,35,3,63,-9,11,23,50,-36,30,-45,55,23,84,-36,63,-45,41
34823,-2,35,3,72,-9,02,23,50,-37,20,-45,10,23,79,-36,71,-45,36
34838,-2,35,3,72,-9,02,23,50,-37,20,-45,10,23,75,-36,79,-45,32
34853,-2,35,3,72,-9,21,23,50,-37,20,-46,05,23,71,-36,85,-45,43
34869,-2,35,3,72,-9,21,23,50,-37,20,-46,05,23,68,-36,90,-45,53
34884,-2,35,3,72,-9,21,23,50,-37,20,-46,05,23,68,-36,95,-45,60
34899,-2,35,3,72,-9,21,23,50,-37,20,-46,05,23,68,-36,98,-45,67
34914,-2,65,3,72,-9,21,26,50,-37,20,-46,05,24,10,-37,02,-45,73
34929,-2,65,3,72,-9,21,26,50,-37,20,-46,05,24,46,-37,02,-45,78
34944,-2,35,3,72,-9,21,23,50,-37,20,-46,05,24,32,-37,02,-45,82
34961,-2,35,3,72,-9,02,23,50,-37,20,-45,10,24,19,-37,02,-45,71
34976,-2,35,3,72,-9,02,23,50,-37,20,-45,10,24,09,-37,02,-45,62
34992,-2,35,3,72,-9,11,23,50,-37,20,-45,55,24,00,-37,02,-45,62
35008,-2,35,3,63,-9,11,23,50,-36,30,-45,55,23,93,-36,91,-45,62
35023,-2,35,3,63,-9,11,23,50,-36,30,-45,55,23,86,-36,82,-45,62
35038,-2,35,3,82,-9,11,23,50,-38,20,-45,55,23,81,-37,02,-45,62
35053,-2,35,3,82,-9,11,23,50,-38,20,-45,55,23,76,-37,20,-45,62
35069,-2,35,3,63,-9,11,23,50,-36,30,-45,55,23,72,-37,07,-45,62
35084,-2,35,3,63,-9,21,23,50,-36,30,-46,05,23,69,-36,95,-45,68
35100,-2,35,3,72,-9,21,23,50,-37,20,-46,05,23,69,-36,99,-45,74
35115,-2,35,3,72,-9,02,23,50,-37,20,-45,10,23,69,-37,02,-45,64
35130,-2,35,3,72,-9,02,23,50,-37,20,-45,10,23,69,-37,02,-45,56
35145,-2,35,3,72,-9,02,23,50,-37,20,-45,10,23,69,-37,02,-45,49
35160,-2,35,3,72,-9,02,23,50,-37,20,-45,10,23,69,-37,02,-45,43
35175,-2,35,3,72,-9,02,23,50,-37,20,-45,10,23,69,-37,02,-45,38
35192,-2,35,3,72,-9,02,23,50,-37,20,-45,10,23,69,-37,02,-45,34
35207,-2,35,3,82,-9,11,23,50,-38,20,-45,55,23,69,-37,20,-45,37
35222,-2,35,3,82,-9,11,23,50,-38,20,-45,55,23,69,-37,35,-45,37
35238,-2,35,3,82,-9,11,23,50,-38,20,-45,55,23,69,-37,48,-45,37
35253,-2,35,3,82,-9,11,23,50,-38,20,-45,55,23,69,-37,58,-45,37
35273,-2,45,3,72,-9,02,24,50,-37,20,-45,10,23,81,-37,53,-45,33
35290,-2,45,3,72,-9,02,24,50,-37,20,-45,10,23,91,-37,48,-45,30
35308,-2,35,3,63,-9,11,23,50,-36,30,-45,55,23,85,-37,30,-45,33
35326,-2,35,3,63,-9,02,23,50,-36,30,-45,10,23,80,-37,15,-45,30
35342,-2,35,3,72,-9,02,23,50,-37,20,-45,10,23,75,-37,15,-45,30
35360,-2,35,3,72,-9,02,23,50,-37,20,-45,10,23,72,-37,15,-45,30
35378,-2,45,3,72,-9,02,24,50,-37,20,-45,10,23,83,-37,15,-45,30
35393,-2,35,3,72,-9,02,23,50,-37,20,-45,10,23,78,-37,15,-45,30
35408,-2,35,3,72,-9,02,23,50,-37,20,-45,10,23,74,-37,15,-45,30
35424,-2,35,3,63,-9,11,23,50,-36,30,-45,55,23,70,-37,02,-45,34
35439,-2,35,3,63,-9,11,23,50,-36,30,-45,55,23,67,-36,91,-45,37
35454,-2,35,3,63,-9,11,23,50,-36,30,-45,55,23,67,-36,82,-45,37
35469,-2,35,3,63,-9,11,23,50,-36,30,-45,55,23,67,-36,74,-45,37
35484,-2,35,3,82,-9,11,23,50,-38,20,-45,55,23,67,-36,96,-45,37
35499,-2,35,3,82,-9,11,23,50,-38,20,-45,55,23,67,-37,15,-45,37
35514,-2,45,3,63,-9,11,24,50,-36,30,-45,55,23,80,-37,02,-45,37
35529,-2,45,3,63,-9,11,24,50,-36,30,-45,55,23,90,-36,91,-45,37
35544,-2,35,3,72,-9,02,23,50,-37,20,-45,10,23,84,-36,96,-45,33
35559,-2,35,3,72,-9,02,23,50,-37,20,-45,10,23,79,-36,99,-45,29
35574,-2,35,3,72,-9,02,23,50,-37,20,-45,10,23,75,-37,02,-45,29
35589,-2,35,3,72,-9,02,23,50,-37,20,-45,10,23,71,-37,02,-45,29
35605,-2,35,3,72,-9,02,23,50,-37,20,-45,10,23,68,-37,02,-45,29
35620,-2,35,3,72,-9,02,23,50,-37,20,-45,10,23,68,-37,02,-45,29
35636,-2,45,3,63,-9,11,24,50,-36,30,-45,55,23,80,-36,92,-45,33
35654,-2,45,3,63,-9,11,24,50,-36,30,-45,55,23,91,-36,82,-45,37
35670,-2,35,3,82,-9,11,23,50,-38,20,-45,55,23,85,-37,03,-45,37
35686,-2,35,3,82,-9,11,23,50,-38,20,-45,55,23,79,-37,20,-45,37
35701,-2,35,3,82,-9,11,23,50,-38,20,-45,55,23,75,-37,35,-45,37
35719,-2,35,3,63,-9,11,23,50,-36,30,-45,55,23,71,-37,20,-45,37
35734,-2,35,3,63,-9,11,23,50,-36,30,-45,55,23,68,-37,06,-45,37
35749,-2,35,3,72,-9,21,23,50,-37,20,-46,05,23,68,-37,06,-45,47
35764,-2,45,3,72,-9,21,24,50,-37,20,-46,05,23,80,-37,06,-45,56
35779,-2,45,3,72,-9,02,24,50,-37,20,-45,10,23,91,-37,06,-45,49
35794,-2,35,3,72,-9,02,23,50,-37,20,-45,10,23,85,-37,06,-45,43
35809,-2,35,3,72,-9,21,23,50,-37,20,-46,05,23,79,-37,06,-45,52
35824,-2,35,3,72,-9,21,23,50,-37,20,-46,05,23,75,-37,06,-45,60
35839,-2,35,3,63,-9,11,23,50,-36,30,-45,55,23,71,-36,95,-45,60
35854,-2,45,3,63,-9,11,24,50,-36,30,-45,55,23,83,-36,85,-45,60
35870,-2,45,3,82,-9,31,24,50,-38,20,-46,55,23,93,-37,05,-45,74
35890,-2,45,3,82,-9,31,24,50,-38,20,-46,55,24,02,-37,22,-45,86
35906,-2,35,3,72,-9,02,23,50,-37,20,-45,10,23,94,-37,22,-45,75
35930,-2,35,3,82,-9,11,23,50,-38,20,-45,55,23,87,-37,37,-45,75
35958,-2,45,3,72,-9,21,24,50,-37,20,-46,05,23,97,-37,37,-45,79
35976,-2,45,3,72,-9,21,24,50,-37,20,-46,05,24,05,-37,37,-45,83
35996,-2,45,3,72,-9,21,24,50,-37,20,-46,05,24,12,-37,37,-45,87
36015,-2,45,3,72,-9,02,24,50,-37,20,-45,10,24,17,-37,37,-45,75
36031,-2,35,3,72,-9,02,23,50,-37,20,-45,10,24,07,-37,37,-45,65
36047,-2,35,3,63,-9,11,23,50,-36,30,-45,55,23,99,-37,21,-45,65
36067,-2,45,3,63,-9,11,24,50,-36,30,-45,55,24,06,-37,07,-45,65
36090,-2,35,3,63,-9,11,23,50,-36,30,-45,55,23,98,-36,96,-45,65
36106,-2,35,3,82,-9,11,23,50,-38,20,-45,55,23,91,-37,14,-45,65
36122,-2,45,3,82,-9,11,24,50,-38,20,-45,55,24,00,-37,30,-45,65
36137,-2,45,3,72,-9,21,24,50,-37,20,-46,05,24,07,-37,30,-45,71
36153,-2,35,3,72,-9,21,23,50,-37,20,-46,05,23,99,-37,30,-45,76
36168,-2,35,3,82,-9,11,23,50,-38,20,-45,55,23,91,-37,44,-45,73
36191,-2,35,3,82,-9,11,23,50,-38,20,-45,55,23,85,-37,55,-45,73
36210,-2,45,3,72,-9,02,24,50,-37,20,-45,10,23,95,-37,50,-45,64
36231,-2,45,3,72,-9,02,24,50,-37,20,-45,10,24,03,-37,45,-45,56
36246,-2,45,3,72,-9,02,24,50,-37,20,-45,10,24,10,-37,42,-45,49
36262,-2,35,3,72,-9,02,23,50,-37,20,-45,10,24,01,-37,38,-45,43
36282,-2,35,3,72,-9,02,23,50,-37,20,-45,10,23,93,-37,38,-45,38
36309,-2,35,3,72,-9,02,23,50,-37,20,-45,10,23,87,-37,38,-45,34
36336,-2,35,3,72,-9,02,23,50,-37,20,-45,10,23,81,-37,38,-45,30
36356,-2,45,3,72,-9,02,24,50,-37,20,-45,10,23,92,-37,38,-45,27
36376,-2,45,3,72,-9,02,24,50,-37,20,-45,10,24,00,-37,38,-45,27
36395,-2,35,3,72,-9,02,23,50,-37,20,-45,10,23,93,-37,38,-45,27
36411,-2,35,3,72,-9,02,23,50,-37,20,-45,10,23,86,-37,38,-45,27
36426,-2,35,3,72,-9,02,23,50,-37,20,-45,10,23,81,-37,38,-45,27
36442,-2,45,3,72,-9,21,24,50,-37,20,-46,05,23,91,-37,38,-45,39
36457,-2,45,3,72,-9,21,24,50,-37,20,-46,05,24,00,-37,38,-45,49
36473,-2,45,3,72,-9,02,24,50,-37,20,-45,10,24,08,-37,38,-45,43
36490,-2,45,3,72,-9,02,24,50,-37,20,-45,10,24,14,-37,38,-45,38
36505,-2,35,3,72,-9,02,23,50,-37,20,-45,10,24,04,-37,38,-45,34
36521,-2,35,3,72,-9,02,23,50,-37,20,-45,10,23,96,-37,38,-45,30
36536,-2,35,3,63,-9,11,23,50,-36,30,-45,55,23,89,-37,22,-45,34
36552,-2,35,3,63,-9,21,23,50,-36,30,-46,05,23,83,-37,08,-45,45
36570,-2,45,3,72,-9,21,24,50,-37,20,-46,05,23,93,-37,08,-45,54
36590,-2,45,3,63,-9,11,24,50,-36,30,-45,55,24,02,-36,97,-45,54
36606,-2,45,3,63,-9,11,24,50,-36,30,-45,55,24,09,-36,87,-45,54
36621,-2,35,3,72,-9,02,23,50,-37,20,-45,10,24,00,-36,92,-45,47
36636,-2,35,3,72,-9,02,23,50,-37,20,-45,10,23,93,-36,96,-45,42
36657,-2,35,3,72,-9,21,23,50,-37,20,-46,05,23,86,-36,99,-45,51
36672,-2,35,3,72,-9,02,23,50,-37,20,-45,10,23,81,-37,03,-45,45
36687,-2,35,3,72,-9,02,23,50,-37,20,-45,10,23,76,-37,03,-45,40
36709,-2,35,3,72,-9,11,23,50,-37,20,-45,55,23,72,-37,03,-45,40
36730,-2,45,3,82,-9,11,24,50,-38,20,-45,55,23,84,-37,20,-45,40
36750,-2,45,3,63,-9,11,24,50,-36,30,-45,55,23,94,-37,07,-45,40
36767,-2,45,3,82,-9,11,24,50,-38,20,-45,55,24,02,-37,24,-45,40
36783,-2,45,3,82,-9,11,24,50,-38,20,-45,55,24,09,-37,38,-45,40
36802,-2,45,3,82,-9,11,24,50,-38,20,-45,55,24,16,-37,50,-45,40
36822,-2,45,3,82,-9,11,24,50,-38,20,-45,55,24,21,-37,61,-45,40
36837,-2,45,3,82,-9,11,24,50,-38,20,-45,55,24,25,-37,70,-45,40
36852,-2,45,3,82,-9,02,24,50,-38,20,-45,10,24,29,-37,77,-45,35
36867,-2,65,3,72,-9,02,26,50,-37,20,-45,10,24,62,-37,69,-45,31
36882,-2,65,3,72,-9,02,26,50,-37,20,-45,10,24,90,-37,61,-45,28
36897,-2,45,3,72,-9,02,24,50,-37,20,-45,10,24,84,-37,55,-45,28
36912,-2,45,3,72,-9,11,24,50,-37,20,-45,55,24,79,-37,50,-45,32
36927,-2,35,3,63,-9,11,23,50,-36,30,-45,55,24,60,-37,32,-45,36
36942,-2,35,3,63,-9,21,23,50,-36,30,-46,05,24,43,-37,17,-45,46
36957,-2,35,3,72,-9,21,23,50,-37,20,-46,05,24,29,-37,17,-45,55
36975,-2,35,3,72,-9,02,23,50,-37,20,-45,10,24,17,-37,17,-45,48
36992,-2,45,3,72,-9,02,24,50,-37,20,-45,10,24,22,-37,17,-45,42
37010,-2,45,3,72,-9,02,24,50,-37,20,-45,10,24,26,-37,17,-45,38
37027,-2,35,3,72,-9,02,23,50,-37,20,-45,10,24,15,-37,17,-45,33
37042,-2,35,3,72,-9,21,23,50,-37,20,-46,05,24,05,-37,17,-45,44
37058,-2,35,3,72,-9,21,23,50,-37,20,-46,05,23,97,-37,17,-45,53
37077,-2,35,3,63,-9,11,23,50,-36,30,-45,55,23,90,-37,04,-45,53
37095,-2,35,3,63,-9,11,23,50,-36,30,-45,55,23,84,-36,93,-45,53
37111,-2,35,3,63,-9,11,23,50,-36,30,-45,55,23,79,-36,83,-45,53
37127,-2,35,3,63,-9,11,23,50,-36,30,-45,55,23,74,-36,75,-45,53
37142,-2,45,3,63,-9,11,24,50,-36,30,-45,55,23,86,-36,68,-45,53
37157,-2,45,3,72,-9,02,24,50,-37,20,-45,10,23,95,-36,76,-45,47
37174,-2,35,3,72,-9,02,23,50,-37,20,-45,10,23,89,-36,83,-45,41
37190,-2,35,3,63,-9,11,23,50,-36,30,-45,55,23,83,-36,75,-45,41
37205,-2,35,3,63,-9,11,23,50,-36,30,-45,55,23,78,-36,68,-45,41
37220,-2,35,3,63,-9,11,23,50,-36,30,-45,55,23,74,-36,62,-45,41
37235,-2,35,3,63,-9,11,23,50,-36,30,-45,55,23,70,-36,58,-45,41
37250,-2,35,3,63,-9,11,23,50,-36,30,-45,55,23,67,-36,53,-45,41
37265,-2,35,3,63,-9,11,23,50,-36,30,-45,55,23,67,-36,50,-45,41
37280,-2,35,3,72,-9,02,23,50,-37,20,-45,10,23,67,-36,60,-45,37
37296,-2,35,3,72,-9,02,23,50,-37,20,-45,10,23,67,-36,69,-45,33
37313,-2,35,3,63,-9,11,23,50,-36,30,-45,55,23,67,-36,63,-45,36
37329,-2,35,3,63,-9,11,23,50,-36,30,-45,55,23,67,-36,58,-45,36
37344,-2,35,3,53,-8,72,23,50,-35,30,-43,60,23,67,-36,39,-45,10
37359,-2,35,3,53,-8,72,23,50,-35,30,-43,60,23,67,-36,23,-44,87
37374,-2,45,3,72,-9,02,24,50,-37,20,-45,10,23,80,-36,37,-44,91
37389,-2,45,3,72,-9,02,24,50,-37,20,-45,10,23,90,-36,50,-44,91
37404,-2,35,3,72,-9,02,23,50,-37,20,-45,10,23,84,-36,60,-44,91
37419,-2,35,3,72,-9,02,23,50,-37,20,-45,10,23,79,-36,69,-44,91
37434,-2,35,3,72,-9,02,23,50,-37,20,-45,10,23,75,-36,77,-44,91
37451,-2,35,3,72,-9,02,23,50,-37,20,-45,10,23,71,-36,83,-44,91
37468,-2,35,3,72,-9,02,23,50,-37,20,-45,10,23,68,-36,89,-44,91
37484,-2,35,3,72,-9,02,23,50,-37,20,-45,10,23,68,-36,94,-44,91
37507,-2,35,3,72,-9,02,23,50,-37,20,-45,10,23,68,-36,97,-44,91
37528,-2,35,3,72,-9,02,23,50,-37,20,-45,10,23,68,-37,01,-44,91
37544,-2,35,3,72,-9,21,23,50,-37,20,-46,05,23,68,-37,01,-45,08
