Time,RawAccelX,RawAccelY,RawAccelZ,CalibRobotX,CalibRobotY,TargetModelPitch(X),TargetModelYaw(Y),TargetModelRoll(Z),CurrentModelPitch(X),CurrentModelYaw(Y),CurrentModelRoll(Z),ClampedModelPitch(X),ClampedModelYaw(Y),ClampedModelRoll(Z)
489,0,00,0,39,-10,09,0,20,0,10,-7,00,0,00,14,00,-1,05,0,00,2,10,-1,05,0,00,2,10
519,0,00,0,39,-10,09,0,20,0,10,-7,00,0,00,14,00,-1,94,0,00,3,89,-1,94,0,00,3,89
645,-0,20,0,39,-10,09,0,00,0,10,-7,00,0,00,0,00,-2,70,0,00,3,30,-2,70,0,00,3,30
672,-0,20,0,39,-10,09,0,00,0,10,-7,00,0,00,0,00,-3,35,0,00,2,81,-3,35,0,00,2,81
698,-0,20,0,39,-10,09,0,00,0,10,-7,00,0,00,0,00,-3,89,0,00,2,39,-3,89,0,00,2,39
722,-0,20,0,39,-10,09,0,00,0,10,-7,00,0,00,0,00,-4,36,0,00,2,03,-4,36,0,00,2,03
751,-0,20,0,39,-10,09,0,00,0,10,-7,00,0,00,0,00,-4,76,0,00,1,72,-4,76,0,00,1,72
779,-0,20,0,39,-10,09,0,00,0,10,-7,00,0,00,0,00,-5,09,0,00,1,47,-5,09,0,00,1,47
803,-0,20,0,29,-10,19,0,00,0,00,-0,00,0,00,0,00,-4,33,0,00,1,25,-4,33,0,00,1,25
829,-0,20,0,39,-10,09,0,00,0,10,-7,00,0,00,0,00,-4,73,0,00,1,06,-4,73,0,00,1,06
852,-0,20,0,39,-10,09,0,00,0,10,-7,00,0,00,0,00,-5,07,0,00,0,90,-5,07,0,00,0,90
879,-0,20,0,39,-10,09,0,00,0,10,-7,00,0,00,0,00,-5,36,0,00,0,76,-5,36,0,00,0,76
903,-0,20,0,39,-10,09,0,00,0,10,-7,00,0,00,0,00,-5,61,0,00,0,65,-5,61,0,00,0,65
929,-0,20,0,39,-10,09,0,00,0,10,-7,00,0,00,0,00,-5,81,0,00,0,55,-5,81,0,00,0,55
956,-0,20,0,39,-10,09,0,00,0,10,-7,00,0,00,0,00,-5,99,0,00,0,47,-5,99,0,00,0,47
982,-0,20,0,39,-10,09,0,00,0,10,-7,00,0,00,0,00,-6,14,0,00,0,40,-6,14,0,00,0,40
1007,-0,20,0,39,-10,09,0,00,0,10,-7,00,0,00,0,00,-6,27,0,00,0,34,-6,27,0,00,0,34
1039,-0,20,0,39,-10,09,0,00,0,10,-7,00,0,00,0,00,-6,38,0,00,0,29,-6,38,0,00,0,29
1064,-0,20,0,39,-10,09,0,00,0,10,-7,00,0,00,0,00,-6,47,0,00,0,25,-6,47,0,00,0,25
1088,-0,20,0,39,-10,19,0,00,0,10,-7,00,0,00,0,00,-6,55,0,00,0,21,-6,55,0,00,0,21
1109,-0,20,0,29,-10,19,0,00,0,00,-0,00,0,00,0,00,-5,57,0,00,0,18,-5,57,0,00,0,18
1134,-0,20,0,39,-10,09,0,00,0,10,-7,00,0,00,0,00,-5,78,0,00,0,15,-5,78,0,00,0,15
1159,-0,20,0,39,-10,09,0,00,0,10,-7,00,0,00,0,00,-5,97,0,00,0,13,-5,97,0,00,0,13
1187,-0,20,0,39,-10,29,0,00,0,10,-7,00,0,00,0,00,-6,12,0,00,0,11,-6,12,0,00,0,11
1210,-0,20,0,39,-10,29,0,00,0,10,-7,00,0,00,0,00,-6,25,0,00,0,09,-6,25,0,00,0,09
1232,-0,20,0,39,-10,29,0,00,0,10,-7,00,0,00,0,00,-6,37,0,00,0,08,-6,37,0,00,0,08
1255,-0,20,0,39,-10,29,0,00,0,10,-7,00,0,00,0,00,-6,46,0,00,0,07,-6,46,0,00,0,07
1280,-0,20,0,39,-10,09,0,00,0,10,-7,00,0,00,0,00,-6,54,0,00,0,06,-6,54,0,00,0,06
1301,0,20,0,39,-10,09,0,40,0,10,-7,00,0,00,28,00,-6,61,0,00,4,25,-6,61,0,00,4,25
1321,-0,20,0,20,-10,09,0,00,-0,09,6,30,0,00,0,00,-4,67,0,00,3,61,-4,67,0,00,3,61
1341,-0,20,0,39,-10,09,0,00,0,10,-7,00,0,00,0,00,-5,02,0,00,3,07,-5,02,0,00,3,07
1361,-0,20,0,39,-10,09,0,00,0,10,-7,00,0,00,0,00,-5,32,0,00,2,61,-5,32,0,00,2,61
1389,-0,20,0,39,-10,09,0,00,0,10,-7,00,0,00,0,00,-5,57,0,00,2,22,-5,57,0,00,2,22
1410,-0,20,0,39,-10,09,0,00,0,10,-7,00,0,00,0,00,-5,79,0,00,1,88,-5,79,0,00,1,88
1434,-0,20,0,39,-10,09,0,00,0,10,-7,00,0,00,0,00,-5,97,0,00,1,60,-5,97,0,00,1,60
1454,-0,20,0,29,-10,19,0,00,0,00,-0,00,0,00,0,00,-5,07,0,00,1,36,-5,07,0,00,1,36
1476,-0,20,0,29,-10,19,0,00,0,00,-0,00,0,00,0,00,-4,31,0,00,1,16,-4,31,0,00,1,16
1498,0,00,0,29,-10,19,0,20,0,00,-0,00,0,00,14,00,-3,67,0,00,3,08,-3,67,0,00,3,08
1518,0,00,0,29,-10,19,0,20,0,00,-0,00,0,00,14,00,-3,12,0,00,4,72,-3,12,0,00,4,72
1543,0,00,0,29,-10,09,0,20,0,00,-0,00,0,00,14,00,-2,65,0,00,6,11,-2,65,0,00,6,11
1564,-0,20,0,39,-10,09,0,00,0,10,-7,00,0,00,0,00,-3,30,0,00,5,20,-3,30,0,00,5,20
1600,-0,20,0,39,-10,09,0,00,0,10,-7,00,0,00,0,00,-3,86,0,00,4,42,-3,86,0,00,4,42
1629,0,00,0,39,-10,09,0,20,0,10,-7,00,0,00,14,00,-4,33,0,00,5,85,-4,33,0,00,5,85
1652,0,00,0,39,-10,09,0,20,0,10,-7,00,0,00,14,00,-4,73,0,00,7,08,-4,73,0,00,7,08
1673,-0,20,0,29,-10,00,0,00,0,00,-0,00,0,00,0,00,-4,02,0,00,6,01,-4,02,0,00,6,01
1693,-0,20,0,39,-10,09,0,00,0,10,-7,00,0,00,0,00,-4,47,0,00,5,11,-4,47,0,00,5,11
1713,0,00,0,39,-10,09,0,20,0,10,-7,00,0,00,14,00,-4,85,0,00,6,45,-4,85,0,00,6,45
1732,0,00,0,39,-10,09,0,20,0,10,-7,00,0,00,14,00,-5,17,0,00,7,58,-5,17,0,00,7,58
1752,0,00,0,39,-10,19,0,20,0,10,-7,00,0,00,14,00,-5,44,0,00,8,54,-5,44,0,00,8,54
1776,-0,20,0,29,-10,19,0,00,0,00,-0,00,0,00,0,00,-4,63,0,00,7,26,-4,63,0,00,7,26
1799,-0,20,0,29,-10,19,0,00,0,00,-0,00,0,00,0,00,-3,93,0,00,6,17,-3,93,0,00,6,17
1820,-0,20,0,29,-10,19,0,00,0,00,-0,00,0,00,0,00,-3,34,0,00,5,25,-3,34,0,00,5,25
1838,-0,20,0,29,-10,09,0,00,0,00,-0,00,0,00,0,00,-2,84,0,00,4,46,-2,84,0,00,4,46
1856,-0,20,0,39,-10,09,0,00,0,10,-7,00,0,00,0,00,-3,47,0,00,3,79,-3,47,0,00,3,79
1877,-0,20,0,29,-10,19,0,00,0,00,-0,00,0,00,0,00,-2,95,0,00,3,22,-2,95,0,00,3,22
1898,-0,20,0,29,-10,09,0,00,0,00,-0,00,0,00,0,00,-2,50,0,00,2,74,-2,50,0,00,2,74
1917,-0,20,0,39,-10,09,0,00,0,10,-7,00,0,00,0,00,-3,18,0,00,2,33,-3,18,0,00,2,33
1937,-0,20,0,39,-10,09,0,00,0,10,-7,00,0,00,0,00,-3,75,0,00,1,98,-3,75,0,00,1,98
1958,-0,20,0,39,-10,19,0,00,0,10,-7,00,0,00,0,00,-4,24,0,00,1,68,-4,24,0,00,1,68
1976,-0,20,0,29,-10,19,0,00,0,00,-0,00,0,00,0,00,-3,60,0,00,1,43,-3,60,0,00,1,43
1997,-0,20,0,29,-10,19,0,00,0,00,-0,00,0,00,0,00,-3,06,0,00,1,22,-3,06,0,00,1,22
2020,-0,20,0,29,-10,09,0,00,0,00,-0,00,0,00,0,00,-2,60,0,00,1,03,-2,60,0,00,1,03
2042,-0,20,0,39,-10,09,0,00,0,10,-7,00,0,00,0,00,-3,26,0,00,0,88,-3,26,0,00,0,88
2063,-0,20,0,29,-10,19,0,00,0,00,-0,00,0,00,0,00,-2,77,0,00,0,75,-2,77,0,00,0,75
2085,-0,20,0,29,-10,19,0,00,0,00,-0,00,0,00,0,00,-2,36,0,00,0,63,-2,36,0,00,0,63
2110,-0,20,0,29,-10,09,0,00,0,00,-0,00,0,00,0,00,-2,00,0,00,0,54,-2,00,0,00,0,54
2129,-0,20,0,39,-10,09,0,00,0,10,-7,00,0,00,0,00,-2,75,0,00,0,46,-2,75,0,00,0,46
2148,0,00,0,39,-10,09,0,20,0,10,-7,00,0,00,14,00,-3,39,0,00,2,49,-3,39,0,00,2,49
2166,0,00,0,39,-10,09,0,20,0,10,-7,00,0,00,14,00,-3,93,0,00,4,22,-3,93,0,00,4,22
2184,-0,20,0,39,-10,09,0,00,0,10,-7,00,0,00,0,00,-4,39,0,00,3,58,-4,39,0,00,3,58
2202,-0,20,0,39,-10,09,0,00,0,10,-7,00,0,00,0,00,-4,78,0,00,3,05,-4,78,0,00,3,05
2221,-0,20,0,39,-10,09,0,00,0,10,-7,00,0,00,0,00,-5,12,0,00,2,59,-5,12,0,00,2,59
2242,-0,20,0,39,-10,09,0,00,0,10,-7,00,0,00,0,00,-5,40,0,00,2,20,-5,40,0,00,2,20
2259,-0,20,0,39,-10,09,0,00,0,10,-7,00,0,00,0,00,-5,64,0,00,1,87,-5,64,0,00,1,87
2282,-0,20,0,39,-10,09,0,00,0,10,-7,00,0,00,0,00,-5,84,0,00,1,59,-5,84,0,00,1,59
2302,-0,20,0,39,-10,09,0,00,0,10,-7,00,0,00,0,00,-6,02,0,00,1,35,-6,02,0,00,1,35
2318,-0,20,0,39,-10,09,0,00,0,10,-7,00,0,00,0,00,-6,16,0,00,1,15,-6,16,0,00,1,15
2334,-0,20,0,39,-10,09,0,00,0,10,-7,00,0,00,0,00,-6,29,0,00,0,98,-6,29,0,00,0,98
2350,-0,20,0,39,-10,19,0,00,0,10,-7,00,0,00,0,00,-6,40,0,00,0,83,-6,40,0,00,0,83
2369,0,00,0,29,-10,19,0,20,0,00,-0,00,0,00,14,00,-5,44,0,00,2,81,-5,44,0,00,2,81
2387,-0,20,0,39,-10,09,0,00,0,10,-7,00,0,00,0,00,-5,67,0,00,2,38,-5,67,0,00,2,38
2404,-0,20,0,39,-10,09,0,00,0,10,-7,00,0,00,0,00,-5,87,0,00,2,03,-5,87,0,00,2,03
2422,0,00,0,39,-10,09,0,20,0,10,-7,00,0,00,14,00,-6,04,0,00,3,82,-6,04,0,00,3,82
2439,0,00,0,39,-10,09,0,20,0,10,-7,00,0,00,14,00,-6,18,0,00,5,35,-6,18,0,00,5,35
2457,0,00,0,39,-10,09,0,20,0,10,-7,00,0,00,14,00,-6,31,0,00,6,65,-6,31,0,00,6,65
2477,0,00,0,29,-10,19,0,20,0,00,-0,00,0,00,14,00,-5,36,0,00,7,75,-5,36,0,00,7,75
2494,0,00,0,29,-10,19,0,20,0,00,-0,00,0,00,14,00,-4,56,0,00,8,69,-4,56,0,00,8,69
2510,-0,20,0,39,-10,09,0,00,0,10,-7,00,0,00,0,00,-4,92,0,00,7,38,-4,92,0,00,7,38
2527,-0,20,0,39,-10,09,0,00,0,10,-7,00,0,00,0,00,-5,23,0,00,6,28,-5,23,0,00,6,28
2547,0,00,0,39,-10,29,0,20,0,10,-7,00,0,00,14,00,-5,50,0,00,7,44,-5,50,0,00,7,44
2565,0,00,0,39,-10,09,0,20,0,10,-7,00,0,00,14,00,-5,72,0,00,8,42,-5,72,0,00,8,42
2583,-0,20,0,39,-10,09,0,00,0,10,-7,00,0,00,0,00,-5,92,0,00,7,16,-5,92,0,00,7,16
2602,-0,20,0,39,-10,09,0,00,0,10,-7,00,0,00,0,00,-6,08,0,00,6,08,-6,08,0,00,6,08
2619,-0,20,0,39,-10,09,0,00,0,10,-7,00,0,00,0,00,-6,22,0,00,5,17,-6,22,0,00,5,17
2637,-0,20,0,39,-10,09,0,00,0,10,-7,00,0,00,0,00,-6,33,0,00,4,40,-6,33,0,00,4,40
2654,-0,20,0,39,-10,09,0,00,0,10,-7,00,0,00,0,00,-6,43,0,00,3,74,-6,43,0,00,3,74
2672,-0,20,0,39,-10,09,0,00,0,10,-7,00,0,00,0,00,-6,52,0,00,3,18,-6,52,0,00,3,18
2690,-0,20,0,39,-10,09,0,00,0,10,-7,00,0,00,0,00,-6,59,0,00,2,70,-6,59,0,00,2,70
2709,-0,20,0,39,-10,09,0,00,0,10,-7,00,0,00,0,00,-6,65,0,00,2,29,-6,65,0,00,2,29
2727,0,00,0,39,-10,09,0,20,0,10,-7,00,0,00,14,00,-6,70,0,00,4,05,-6,70,0,00,4,05
2747,0,00,0,39,-10,09,0,20,0,10,-7,00,0,00,14,00,-6,75,0,00,5,54,-6,75,0,00,5,54
2765,0,00,0,39,-10,09,0,20,0,10,-7,00,0,00,14,00,-6,79,0,00,6,81,-6,79,0,00,6,81
2782,-0,20,0,20,-10,09,0,00,-0,09,6,30,0,00,0,00,-4,82,0,00,5,79,-4,82,0,00,5,79
2800,-0,20,0,20,-10,09,0,00,-0,09,6,30,0,00,0,00,-3,16,0,00,4,92,-3,16,0,00,4,92
2819,-0,20,0,20,-10,09,0,00,-0,09,6,30,0,00,0,00,-1,74,0,00,4,18,-1,74,0,00,4,18
2837,0,00,0,39,-10,09,0,20,0,10,-7,00,0,00,14,00,-2,53,0,00,5,66,-2,53,0,00,5,66
2854,0,00,0,39,-10,09,0,20,0,10,-7,00,0,00,14,00,-3,20,0,00,6,91,-3,20,0,00,6,91
2871,0,00,0,39,-10,09,0,20,0,10,-7,00,0,00,14,00,-3,77,0,00,7,97,-3,77,0,00,7,97
2888,0,00,0,39,-10,09,0,20,0,10,-7,00,0,00,14,00,-4,25,0,00,8,88,-4,25,0,00,8,88
2905,0,00,0,39,-10,09,0,20,0,10,-7,00,0,00,14,00,-4,66,0,00,9,64,-4,66,0,00,9,64
2923,0,00,0,29,-10,19,0,20,0,00,-0,00,0,00,14,00,-3,96,0,00,10,30,-3,96,0,00,10,30
2944,0,00,0,29,-10,19,0,20,0,00,-0,00,0,00,14,00,-3,37,0,00,10,85,-3,37,0,00,10,85
2964,0,00,0,29,-10,19,0,20,0,00,-0,00,0,00,14,00,-2,86,0,00,11,32,-2,86,0,00,11,32
2981,0,00,0,29,-10,09,0,20,0,00,-0,00,0,00,14,00,-2,43,0,00,11,73,-2,43,0,00,11,73
2998,0,00,0,39,-10,09,0,20,0,10,-7,00,0,00,14,00,-3,12,0,00,12,07,-3,12,0,00,12,07
3016,0,00,0,39,-10,09,0,20,0,10,-7,00,0,00,14,00,-3,70,0,00,12,36,-3,70,0,00,12,36
3033,0,00,0,39,-10,09,0,20,0,10,-7,00,0,00,14,00,-4,20,0,00,12,60,-4,20,0,00,12,60
3053,0,00,0,39,-10,09,0,20,0,10,-7,00,0,00,14,00,-4,62,0,00,12,81,-4,62,0,00,12,81
3070,0,00,0,39,-10,09,0,20,0,10,-7,00,0,00,14,00,-4,97,0,00,12,99,-4,97,0,00,12,99
3086,-0,20,0,39,-10,09,0,00,0,10,-7,00,0,00,0,00,-5,28,0,00,11,04,-5,28,0,00,11,04
3104,-0,20,0,39,-10,09,0,00,0,10,-7,00,0,00,0,00,-5,54,0,00,9,39,-5,54,0,00,9,39
3121,-0,20,0,39,-10,09,0,00,0,10,-7,00,0,00,0,00,-5,76,0,00,7,98,-5,76,0,00,7,98
3138,0,00,0,39,-10,09,0,20,0,10,-7,00,0,00,14,00,-5,94,0,00,8,88,-5,94,0,00,8,88
3155,0,00,0,39,-10,09,0,20,0,10,-7,00,0,00,14,00,-6,10,0,00,9,65,-6,10,0,00,9,65
3174,0,00,0,39,-10,09,0,20,0,10,-7,00,0,00,14,00,-6,24,0,00,10,30,-6,24,0,00,10,30
3192,0,00,0,39,-10,19,0,20,0,10,-7,00,0,00,14,00,-6,35,0,00,10,86,-6,35,0,00,10,86
3213,-0,20,0,29,-10,19,0,00,0,00,-0,00,0,00,0,00,-5,40,0,00,9,23,-5,40,0,00,9,23
3230,0,00,0,39,-10,09,0,20,0,10,-7,00,0,00,14,00,-5,64,0,00,9,94,-5,64,0,00,9,94
3246,0,00,0,39,-10,09,0,20,0,10,-7,00,0,00,14,00,-5,84,0,00,10,55,-5,84,0,00,10,55
3262,0,00,0,39,-10,09,0,20,0,10,-7,00,0,00,14,00,-6,02,0,00,11,07,-6,02,0,00,11,07
3278,0,00,0,39,-10,09,0,20,0,10,-7,00,0,00,14,00,-6,16,0,00,11,51,-6,16,0,00,11,51
3296,-0,20,0,39,-10,09,0,00,0,10,-7,00,0,00,0,00,-6,29,0,00,9,78,-6,29,0,00,9,78
3314,-0,20,0,39,-10,09,0,00,0,10,-7,00,0,00,0,00,-6,40,0,00,8,32,-6,40,0,00,8,32
3332,-0,20,0,39,-10,09,0,00,0,10,-7,00,0,00,0,00,-6,49,0,00,7,07,-6,49,0,00,7,07
3350,-0,20,0,29,-10,00,0,00,0,00,-0,00,0,00,0,00,-5,51,0,00,6,01,-5,51,0,00,6,01
3367,-0,20,0,29,-10,00,0,00,0,00,-0,00,0,00,0,00,-4,69,0,00,5,11,-4,69,0,00,5,11
3384,-0,20,0,29,-10,00,0,00,0,00,-0,00,0,00,0,00,-3,98,0,00,4,34,-3,98,0,00,4,34
3403,-0,20,0,29,-10,09,0,00,0,00,-0,00,0,00,0,00,-3,39,0,00,3,69,-3,39,0,00,3,69
3423,0,00,0,39,-10,09,0,20,0,10,-7,00,0,00,14,00,-3,93,0,00,5,24,-3,93,0,00,5,24
3441,-0,20,0,29,-10,19,0,00,0,00,-0,00,0,00,0,00,-3,34,0,00,4,45,-3,34,0,00,4,45
3458,-0,20,0,29,-10,19,0,00,0,00,-0,00,0,00,0,00,-2,84,0,00,3,78,-2,84,0,00,3,78
3480,-0,20,0,29,-10,19,0,00,0,00,-0,00,0,00,0,00,-2,41,0,00,3,22,-2,41,0,00,3,22
3498,0,00,0,29,-10,19,0,20,0,00,-0,00,0,00,14,00,-2,05,0,00,4,83,-2,05,0,00,4,83
3516,0,00,0,29,-10,19,0,20,0,00,-0,00,0,00,14,00,-1,74,0,00,6,21,-1,74,0,00,6,21
3533,0,00,0,29,-10,19,0,20,0,00,-0,00,0,00,14,00,-1,48,0,00,7,38,-1,48,0,00,7,38
3549,0,00,0,29,-10,09,0,20,0,00,-0,00,0,00,14,00,-1,26,0,00,8,37,-1,26,0,00,8,37
3566,-0,20,0,39,-10,09,0,00,0,10,-7,00,0,00,0,00,-2,12,0,00,7,11,-2,12,0,00,7,11
3589,-0,20,0,29,-10,19,0,00,0,00,-0,00,0,00,0,00,-1,80,0,00,6,05,-1,80,0,00,6,05
3606,-0,20,0,29,-10,19,0,00,0,00,-0,00,0,00,0,00,-1,53,0,00,5,14,-1,53,0,00,5,14
3623,-0,20,0,39,-10,09,0,00,0,10,-7,00,0,00,0,00,-2,35,0,00,4,37,-2,35,0,00,4,37
3643,-0,20,0,29,-10,19,0,00,0,00,-0,00,0,00,0,00,-2,00,0,00,3,71,-2,00,0,00,3,71
3661,-0,20,0,29,-10,19,0,00,0,00,-0,00,0,00,0,00,-1,70,0,00,3,16,-1,70,0,00,3,16
3679,-0,20,0,29,-10,19,0,00,0,00,-0,00,0,00,0,00,-1,44,0,00,2,68,-1,44,0,00,2,68
3698,-0,20,0,29,-10,09,0,00,0,00,-0,00,0,00,0,00,-1,23,0,00,2,28,-1,23,0,00,2,28
3717,-0,20,0,39,-10,09,0,00,0,10,-7,00,0,00,0,00,-2,09,0,00,1,94,-2,09,0,00,1,94
3734,-0,20,0,39,-10,09,0,00,0,10,-7,00,0,00,0,00,-2,83,0,00,1,65,-2,83,0,00,1,65
3753,-0,20,0,39,-10,09,0,00,0,10,-7,00,0,00,0,00,-3,46,0,00,1,40,-3,46,0,00,1,40
3771,0,00,0,39,-10,09,0,20,0,10,-7,00,0,00,14,00,-3,99,0,00,3,29,-3,99,0,00,3,29
3788,0,00,0,39,-10,19,0,20,0,10,-7,00,0,00,14,00,-4,44,0,00,4,90,-4,44,0,00,4,90
3805,-0,20,0,29,-10,19,0,00,0,00,-0,00,0,00,0,00,-3,77,0,00,4,16,-3,77,0,00,4,16
3821,-0,20,0,29,-10,19,0,00,0,00,-0,00,0,00,0,00,-3,21,0,00,3,54,-3,21,0,00,3,54
3838,-0,20,0,29,-10,19,0,00,0,00,-0,00,0,00,0,00,-2,73,0,00,3,01,-2,73,0,00,3,01
3855,-0,20,0,29,-10,19,0,00,0,00,-0,00,0,00,0,00,-2,32,0,00,2,56,-2,32,0,00,2,56
3874,0,20,0,29,-10,19,0,40,0,00,-0,00,0,00,28,00,-1,97,0,00,6,37,-1,97,0,00,6,37
3894,0,20,0,29,-10,19,0,40,0,00,-0,00,0,00,28,00,-1,67,0,00,9,62,-1,67,0,00,9,62
3916,0,20,0,39,-10,09,0,40,0,10,-7,00,0,00,28,00,-2,47,0,00,12,37,-2,47,0,00,12,37
3934,-0,20,0,39,-10,09,0,00,0,10,-7,00,0,00,0,00,-3,15,0,00,10,52,-3,15,0,00,10,52
3953,-0,20,0,29,-10,19,0,00,0,00,-0,00,0,00,0,00,-2,68,0,00,8,94,-2,68,0,00,8,94
3972,-0,20,0,29,-10,09,0,00,0,00,-0,00,0,00,0,00,-2,28,0,00,7,60,-2,28,0,00,7,60
3991,-0,20,0,39,-10,09,0,00,0,10,-7,00,0,00,0,00,-2,99,0,00,6,46,-2,99,0,00,6,46
4017,0,00,0,29,-10,19,0,20,0,00,-0,00,0,00,14,00,-2,54,0,00,7,59,-2,54,0,00,7,59
4037,0,00,0,29,-10,19,0,20,0,00,-0,00,0,00,14,00,-2,16,0,00,8,55,-2,16,0,00,8,55
4056,0,00,0,29,-10,19,0,20,0,00,-0,00,0,00,14,00,-1,83,0,00,9,37,-1,83,0,00,9,37
4073,-0,20,0,39,-10,09,0,00,0,10,-7,00,0,00,0,00,-2,61,0,00,7,96,-2,61,0,00,7,96
4091,-0,20,0,39,-10,09,0,00,0,10,-7,00,0,00,0,00,-3,27,0,00,6,77,-3,27,0,00,6,77
4110,0,00,0,39,-10,09,0,20,0,10,-7,00,0,00,14,00,-3,83,0,00,7,85,-3,83,0,00,7,85
4130,-0,20,0,39,-10,09,0,00,0,10,-7,00,0,00,0,00,-4,30,0,00,6,68,-4,30,0,00,6,68
4148,-0,20,0,39,-10,09,0,00,0,10,-7,00,0,00,0,00,-4,71,0,00,5,67,-4,71,0,00,5,67
4167,-0,20,0,39,-10,09,0,00,0,10,-7,00,0,00,0,00,-5,05,0,00,4,82,-5,05,0,00,4,82
4184,-0,20,0,39,-10,09,0,00,0,10,-7,00,0,00,0,00,-5,34,0,00,4,10,-5,34,0,00,4,10
4203,-0,20,0,39,-10,09,0,00,0,10,-7,00,0,00,0,00,-5,59,0,00,3,48,-5,59,0,00,3,48
4220,-0,20,0,29,-10,19,0,00,0,00,-0,00,0,00,0,00,-4,75,0,00,2,96,-4,75,0,00,2,96
4238,-0,20,0,29,-10,19,0,00,0,00,-0,00,0,00,0,00,-4,04,0,00,2,52,-4,04,0,00,2,52
4256,-0,20,0,29,-10,19,0,00,0,00,-0,00,0,00,0,00,-3,43,0,00,2,14,-3,43,0,00,2,14
4273,-0,20,0,39,-10,09,0,00,0,10,-7,00,0,00,0,00,-3,97,0,00,1,82,-3,97,0,00,1,82
4290,-0,20,0,39,-10,09,0,00,0,10,-7,00,0,00,0,00,-4,42,0,00,1,55,-4,42,0,00,1,55
4309,-0,20,0,29,-10,19,0,00,0,00,-0,00,0,00,0,00,-3,76,0,00,1,31,-3,76,0,00,1,31
4328,-0,20,0,29,-10,19,0,00,0,00,-0,00,0,00,0,00,-3,20,0,00,1,12,-3,20,0,00,1,12
4346,-0,20,0,29,-10,19,0,00,0,00,-0,00,0,00,0,00,-2,72,0,00,0,95,-2,72,0,00,0,95
4365,-0,20,0,29,-10,19,0,00,0,00,-0,00,0,00,0,00,-2,31,0,00,0,81,-2,31,0,00,0,81
4383,-0,20,0,29,-10,19,0,00,0,00,-0,00,0,00,0,00,-1,96,0,00,0,69,-1,96,0,00,0,69
4402,-0,20,0,29,-10,19,0,00,0,00,-0,00,0,00,0,00,-1,67,0,00,0,58,-1,67,0,00,0,58
4422,-0,20,0,29,-10,09,0,00,0,00,-0,00,0,00,0,00,-1,42,0,00,0,50,-1,42,0,00,0,50
4439,-0,20,0,39,-10,09,0,00,0,10,-7,00,0,00,0,00,-2,26,0,00,0,42,-2,26,0,00,0,42
4456,-0,20,0,29,-10,19,0,00,0,00,-0,00,0,00,0,00,-1,92,0,00,0,36,-1,92,0,00,0,36
4474,-0,20,0,29,-10,19,0,00,0,00,-0,00,0,00,0,00,-1,63,0,00,0,30,-1,63,0,00,0,30
4510,-0,20,0,29,-10,09,0,00,0,00,-0,00,0,00,0,00,-1,39,0,00,0,26,-1,39,0,00,0,26
4531,-0,20,0,39,-10,09,0,00,0,10,-7,00,0,00,0,00,-2,23,0,00,0,22,-2,23,0,00,0,22
4549,-0,20,0,39,-10,09,0,00,0,10,-7,00,0,00,0,00,-2,94,0,00,0,19,-2,94,0,00,0,19
4566,-0,20,0,39,-10,09,0,00,0,10,-7,00,0,00,0,00,-3,55,0,00,0,16,-3,55,0,00,0,16
4585,-0,20,0,39,-10,09,0,00,0,10,-7,00,0,00,0,00,-4,07,0,00,0,14,-4,07,0,00,0,14
4603,-0,20,0,39,-10,09,0,00,0,10,-7,00,0,00,0,00,-4,51,0,00,0,11,-4,51,0,00,0,11
4620,-0,20,0,39,-10,09,0,00,0,10,-7,00,0,00,0,00,-4,88,0,00,0,10,-4,88,0,00,0,10
4638,0,00,0,39,-10,09,0,20,0,10,-7,00,0,00,14,00,-5,20,0,00,2,18,-5,20,0,00,2,18
4656,0,00,0,39,-10,09,0,20,0,10,-7,00,0,00,14,00,-5,47,0,00,3,96,-5,47,0,00,3,96
4673,0,00,0,39,-10,09,0,20,0,10,-7,00,0,00,14,00,-5,70,0,00,5,46,-5,70,0,00,5,46
4690,0,00,0,39,-10,09,0,20,0,10,-7,00,0,00,14,00,-5,89,0,00,6,74,-5,89,0,00,6,74
4708,0,00,0,39,-10,09,0,20,0,10,-7,00,0,00,14,00,-6,06,0,00,7,83,-6,06,0,00,7,83
4730,0,00,0,29,-10,19,0,20,0,00,-0,00,0,00,14,00,-5,15,0,00,8,76,-5,15,0,00,8,76
4749,0,00,0,29,-10,19,0,20,0,00,-0,00,0,00,14,00,-4,38,0,00,9,54,-4,38,0,00,9,54
4767,0,00,0,29,-10,19,0,20,0,00,-0,00,0,00,14,00,-3,72,0,00,10,21,-3,72,0,00,10,21
4784,0,00,0,39,-10,09,0,20,0,10,-7,00,0,00,14,00,-4,21,0,00,10,78,-4,21,0,00,10,78
4802,-0,20,0,39,-10,09,0,00,0,10,-7,00,0,00,0,00,-4,63,0,00,9,16,-4,63,0,00,9,16
4820,-0,20,0,39,-10,09,0,00,0,10,-7,00,0,00,0,00,-4,99,0,00,7,79,-4,99,0,00,7,79
4838,-0,20,0,39,-10,19,0,00,0,10,-7,00,0,00,0,00,-5,29,0,00,6,62,-5,29,0,00,6,62
4855,0,00,0,29,-10,19,0,20,0,00,-0,00,0,00,14,00,-4,50,0,00,7,73,-4,50,0,00,7,73
4872,0,00,0,39,-10,09,0,20,0,10,-7,00,0,00,14,00,-4,87,0,00,8,67,-4,87,0,00,8,67
4889,-0,20,0,39,-10,09,0,00,0,10,-7,00,0,00,0,00,-5,19,0,00,7,37,-5,19,0,00,7,37
4907,-0,20,0,39,-10,09,0,00,0,10,-7,00,0,00,0,00,-5,46,0,00,6,26,-5,46,0,00,6,26
4925,-0,20,0,39,-10,09,0,00,0,10,-7,00,0,00,0,00,-5,69,0,00,5,32,-5,69,0,00,5,32
4946,-0,20,0,39,-10,09,0,00,0,10,-7,00,0,00,0,00,-5,89,0,00,4,52,-5,89,0,00,4,52
4963,-0,20,0,39,-10,09,0,00,0,10,-7,00,0,00,0,00,-6,06,0,00,3,85,-6,06,0,00,3,85
4981,-0,20,0,39,-10,09,0,00,0,10,-7,00,0,00,0,00,-6,20,0,00,3,27,-6,20,0,00,3,27
5000,-0,20,0,29,-10,19,0,00,0,00,-0,00,0,00,0,00,-5,27,0,00,2,78,-5,27,0,00,2,78
5018,-0,20,0,29,-10,09,0,00,0,00,-0,00,0,00,0,00,-4,48,0,00,2,36,-4,48,0,00,2,36
5035,-0,20,0,39,-10,09,0,00,0,10,-7,00,0,00,0,00,-4,86,0,00,2,01,-4,86,0,00,2,01
5052,-0,20,0,39,-10,09,0,00,0,10,-7,00,0,00,0,00,-5,18,0,00,1,71,-5,18,0,00,1,71
5073,-0,20,0,39,-10,09,0,00,0,10,-7,00,0,00,0,00,-5,45,0,00,1,45,-5,45,0,00,1,45
5092,0,00,0,29,-10,19,0,20,0,00,-0,00,0,00,14,00,-4,63,0,00,3,33,-4,63,0,00,3,33
5115,0,00,0,29,-10,19,0,20,0,00,-0,00,0,00,14,00,-3,94,0,00,4,93,-3,94,0,00,4,93
5133,0,00,0,29,-10,19,0,20,0,00,-0,00,0,00,14,00,-3,35,0,00,6,29,-3,35,0,00,6,29
5153,-0,20,0,49,-10,19,0,00,0,20,-14,00,0,00,0,00,-4,95,0,00,5,35,-4,95,0,00,5,35
5171,-0,20,0,49,-10,09,0,00,0,20,-14,00,0,00,0,00,-6,30,0,00,4,55,-6,30,0,00,4,55
5188,-0,20,0,39,-10,09,0,00,0,10,-7,00,0,00,0,00,-6,41,0,00,3,86,-6,41,0,00,3,86
5205,-0,20,0,39,-10,09,0,00,0,10,-7,00,0,00,0,00,-6,50,0,00,3,29,-6,50,0,00,3,29
5225,-0,20,0,39,-10,09,0,00,0,10,-7,00,0,00,0,00,-6,57,0,00,2,79,-6,57,0,00,2,79
5245,-0,20,0,29,-10,00,0,00,0,00,-0,00,0,00,0,00,-5,59,0,00,2,37,-5,59,0,00,2,37
5263,-0,20,0,29,-10,00,0,00,0,00,-0,00,0,00,0,00,-4,75,0,00,2,02,-4,75,0,00,2,02
5283,-0,20,0,29,-10,00,0,00,0,00,-0,00,0,00,0,00,-4,04,0,00,1,71,-4,04,0,00,1,71
5302,-0,20,0,39,-10,09,0,00,0,10,-7,00,0,00,0,00,-4,48,0,00,1,46,-4,48,0,00,1,46
5326,-0,20,0,39,-10,09,0,00,0,10,-7,00,0,00,0,00,-4,86,0,00,1,24,-4,86,0,00,1,24
5343,-0,20,0,39,-10,09,0,00,0,10,-7,00,0,00,0,00,-5,18,0,00,1,05,-5,18,0,00,1,05
5363,0,00,0,29,-10,19,0,20,0,00,-0,00,0,00,14,00,-4,40,0,00,3,00,-4,40,0,00,3,00
5383,0,00,0,29,-10,19,0,20,0,00,-0,00,0,00,14,00,-3,74,0,00,4,65,-3,74,0,00,4,65
5402,-0,20,0,29,-10,19,0,00,0,00,-0,00,0,00,0,00,-3,18,0,00,3,95,-3,18,0,00,3,95
5421,-0,20,0,29,-10,19,0,00,0,00,-0,00,0,00,0,00,-2,70,0,00,3,36,-2,70,0,00,3,36
5438,-0,20,0,29,-10,19,0,00,0,00,-0,00,0,00,0,00,-2,30,0,00,2,85,-2,30,0,00,2,85
5456,-0,20,0,29,-10,19,0,00,0,00,-0,00,0,00,0,00,-1,95,0,00,2,43,-1,95,0,00,2,43
5474,-0,20,0,29,-10,19,0,00,0,00,-0,00,0,00,0,00,-1,66,0,00,2,06,-1,66,0,00,2,06
5491,-0,20,0,29,-10,19,0,00,0,00,-0,00,0,00,0,00,-1,41,0,00,1,75,-1,41,0,00,1,75
5508,-0,20,0,39,-10,09,0,00,0,10,-7,00,0,00,0,00,-2,25,0,00,1,49,-2,25,0,00,1,49
5529,-0,20,0,39,-10,19,0,00,0,10,-7,00,0,00,0,00,-2,96,0,00,1,27,-2,96,0,00,1,27
5546,-0,20,0,29,-10,19,0,00,0,00,-0,00,0,00,0,00,-2,52,0,00,1,08,-2,52,0,00,1,08
5563,-0,20,0,29,-10,19,0,00,0,00,-0,00,0,00,0,00,-2,14,0,00,0,91,-2,14,0,00,0,91
5583,-0,20,0,29,-10,19,0,00,0,00,-0,00,0,00,0,00,-1,82,0,00,0,78,-1,82,0,00,0,78
5598,-0,20,0,29,-10,19,0,00,0,00,-0,00,0,00,0,00,-1,55,0,00,0,66,-1,55,0,00,0,66
5615,-0,20,0,29,-10,19,0,00,0,00,-0,00,0,00,0,00,-1,31,0,00,0,56,-1,31,0,00,0,56
5631,-0,20,0,29,-10,19,0,00,0,00,-0,00,0,00,0,00,-1,12,0,00,0,48,-1,12,0,00,0,48
5648,-0,20,0,29,-10,09,0,00,0,00,-0,00,0,00,0,00,-0,95,0,00,0,41,-0,95,0,00,0,41
5664,-0,20,0,39,-10,09,0,00,0,10,-7,00,0,00,0,00,-1,86,0,00,0,34,-1,86,0,00,0,34
5680,-0,20,0,39,-10,09,0,00,0,10,-7,00,0,00,0,00,-2,63,0,00,0,29,-2,63,0,00,0,29
5696,-0,20,0,39,-10,09,0,00,0,10,-7,00,0,00,0,00,-3,28,0,00,0,25,-3,28,0,00,0,25
5713,-0,20,0,39,-10,09,0,00,0,10,-7,00,0,00,0,00,-3,84,0,00,0,21,-3,84,0,00,0,21
5729,-0,20,0,39,-10,09,0,00,0,10,-7,00,0,00,0,00,-4,32,0,00,0,18,-4,32,0,00,0,18
5747,-0,20,0,29,-10,19,0,00,0,00,-0,00,0,00,0,00,-3,67,0,00,0,15,-3,67,0,00,0,15
5763,-0,20,0,29,-10,19,0,00,0,00,-0,00,0,00,0,00,-3,12,0,00,0,13,-3,12,0,00,0,13
5779,-0,20,0,29,-10,19,0,00,0,00,-0,00,0,00,0,00,-2,65,0,00,0,11,-2,65,0,00,0,11
5796,-0,20,0,29,-10,19,0,00,0,00,-0,00,0,00,0,00,-2,25,0,00,0,09,-2,25,0,00,0,09
5813,-0,20,0,29,-10,19,0,00,0,00,-0,00,0,00,0,00,-1,91,0,00,0,08,-1,91,0,00,0,08
5830,-0,20,0,29,-10,09,0,00,0,00,-0,00,0,00,0,00,-1,63,0,00,0,07,-1,63,0,00,0,07
5846,0,00,0,39,-10,09,0,20,0,10,-7,00,0,00,14,00,-2,43,0,00,2,16,-2,43,0,00,2,16
5863,0,00,0,39,-10,09,0,20,0,10,-7,00,0,00,14,00,-3,12,0,00,3,93,-3,12,0,00,3,93
5879,0,00,0,39,-10,09,0,20,0,10,-7,00,0,00,14,00,-3,70,0,00,5,44,-3,70,0,00,5,44
5896,-0,20,0,39,-10,09,0,00,0,10,-7,00,0,00,0,00,-4,20,0,00,4,63,-4,20,0,00,4,63
5915,-0,20,0,39,-10,09,0,00,0,10,-7,00,0,00,0,00,-4,62,0,00,3,93,-4,62,0,00,3,93
5932,-0,20,0,39,-10,09,0,00,0,10,-7,00,0,00,0,00,-4,97,0,00,3,34,-4,97,0,00,3,34
5948,-0,20,0,39,-10,19,0,00,0,10,-7,00,0,00,0,00,-5,28,0,00,2,84,-5,28,0,00,2,84
5966,0,00,0,29,-10,19,0,20,0,00,-0,00,0,00,14,00,-4,49,0,00,4,52,-4,49,0,00,4,52
5981,0,00,0,29,-10,19,0,20,0,00,-0,00,0,00,14,00,-3,81,0,00,5,94,-3,81,0,00,5,94
5997,0,00,0,29,-10,19,0,20,0,00,-0,00,0,00,14,00,-3,24,0,00,7,15,-3,24,0,00,7,15
6013,0,00,0,39,-10,09,0,20,0,10,-7,00,0,00,14,00,-3,81,0,00,8,18,-3,81,0,00,8,18
6029,-0,20,0,39,-10,09,0,00,0,10,-7,00,0,00,0,00,-4,28,0,00,6,95,-4,28,0,00,6,95
6045,-0,20,0,39,-10,09,0,00,0,10,-7,00,0,00,0,00,-4,69,0,00,5,91,-4,69,0,00,5,91
6061,0,00,0,39,-10,09,0,20,0,10,-7,00,0,00,14,00,-5,04,0,00,7,12,-5,04,0,00,7,12
6078,0,00,0,39,-10,09,0,20,0,10,-7,00,0,00,14,00,-5,33,0,00,8,15,-5,33,0,00,8,15
6096,0,00,0,39,-10,09,0,20,0,10,-7,00,0,00,14,00,-5,58,0,00,9,03,-5,58,0,00,9,03
6112,-0,20,0,29,-10,19,0,00,0,00,-0,00,0,00,0,00,-4,75,0,00,7,68,-4,75,0,00,7,68
6130,-0,20,0,29,-10,19,0,00,0,00,-0,00,0,00,0,00,-4,03,0,00,6,52,-4,03,0,00,6,52
6146,-0,20,0,29,-10,19,0,00,0,00,-0,00,0,00,0,00,-3,43,0,00,5,55,-3,43,0,00,5,55
6171,-0,20,0,29,-10,19,0,00,0,00,-0,00,0,00,0,00,-2,91,0,00,4,71,-2,91,0,00,4,71
6190,-0,20,0,29,-10,19,0,00,0,00,-0,00,0,00,0,00,-2,48,0,00,4,01,-2,48,0,00,4,01
6206,-0,20,0,29,-10,19,0,00,0,00,-0,00,0,00,0,00,-2,11,0,00,3,41,-2,11,0,00,3,41
6222,-0,20,0,29,-10,19,0,00,0,00,-0,00,0,00,0,00,-1,79,0,00,2,89,-1,79,0,00,2,89
6239,-0,20,0,29,-10,19,0,00,0,00,-0,00,0,00,0,00,-1,52,0,00,2,46,-1,52,0,00,2,46
6255,-0,20,0,29,-10,19,0,00,0,00,-0,00,0,00,0,00,-1,29,0,00,2,09,-1,29,0,00,2,09
6271,0,00,0,29,-10,19,0,20,0,00,-0,00,0,00,14,00,-1,10,0,00,3,88,-1,10,0,00,3,88
6288,0,00,0,29,-10,19,0,20,0,00,-0,00,0,00,14,00,-0,93,0,00,5,40,-0,93,0,00,5,40
6304,0,00,0,29,-10,19,0,20,0,00,-0,00,0,00,14,00,-0,79,0,00,6,69,-0,79,0,00,6,69
6321,0,00,0,29,-10,19,0,20,0,00,-0,00,0,00,14,00,-0,67,0,00,7,78,-0,67,0,00,7,78
6337,0,00,0,29,-10,19,0,20,0,00,-0,00,0,00,14,00,-0,57,0,00,8,72,-0,57,0,00,8,72
6354,-0,20,0,49,-10,19,0,00,0,20,-14,00,0,00,0,00,-2,59,0,00,7,41,-2,59,0,00,7,41
6371,-0,20,0,49,-10,19,0,00,0,20,-14,00,0,00,0,00,-4,30,0,00,6,30,-4,30,0,00,6,30
6388,-0,20,0,29,-10,19,0,00,0,00,-0,00,0,00,0,00,-3,65,0,00,5,35,-3,65,0,00,5,35
6405,-0,20,0,39,-10,09,0,00,0,10,-7,00,0,00,0,00,-4,16,0,00,4,55,-4,16,0,00,4,55
6421,-0,20,0,39,-10,09,0,00,0,10,-7,00,0,00,0,00,-4,58,0,00,3,87,-4,58,0,00,3,87
6438,-0,20,0,39,-10,09,0,00,0,10,-7,00,0,00,0,00,-4,95,0,00,3,29,-4,95,0,00,3,29
6454,-0,20,0,39,-10,09,0,00,0,10,-7,00,0,00,0,00,-5,25,0,00,2,79,-5,25,0,00,2,79
6471,-0,20,0,39,-10,09,0,00,0,10,-7,00,0,00,0,00,-5,52,0,00,2,38,-5,52,0,00,2,38
6488,-0,20,0,39,-10,09,0,00,0,10,-7,00,0,00,0,00,-5,74,0,00,2,02,-5,74,0,00,2,02
6504,-0,20,0,39,-10,09,0,00,0,10,-7,00,0,00,0,00,-5,93,0,00,1,72,-5,93,0,00,1,72
6520,-0,20,0,39,-10,09,0,00,0,10,-7,00,0,00,0,00,-6,09,0,00,1,46,-6,09,0,00,1,46
6536,0,00,0,39,-10,09,0,20,0,10,-7,00,0,00,14,00,-6,23,0,00,3,34,-6,23,0,00,3,34
6552,0,00,0,39,-10,09,0,20,0,10,-7,00,0,00,14,00,-6,34,0,00,4,94,-6,34,0,00,4,94
6569,0,00,0,39,-10,09,0,20,0,10,-7,00,0,00,14,00,-6,44,0,00,6,30,-6,44,0,00,6,30
6585,0,00,0,39,-10,09,0,20,0,10,-7,00,0,00,14,00,-6,52,0,00,7,45,-6,52,0,00,7,45
6602,0,00,0,39,-10,09,0,20,0,10,-7,00,0,00,14,00,-6,60,0,00,8,44,-6,60,0,00,8,44
6618,-0,20,0,39,-10,09,0,00,0,10,-7,00,0,00,0,00,-6,66,0,00,7,17,-6,66,0,00,7,17
6634,-0,20,0,39,-10,09,0,00,0,10,-7,00,0,00,0,00,-6,71,0,00,6,09,-6,71,0,00,6,09
6654,-0,20,0,39,-10,09,0,00,0,10,-7,00,0,00,0,00,-6,75,0,00,5,18,-6,75,0,00,5,18
6676,-0,20,0,39,-10,09,0,00,0,10,-7,00,0,00,0,00,-6,79,0,00,4,40,-6,79,0,00,4,40
6713,0,00,0,39,-10,09,0,20,0,10,-7,00,0,00,14,00,-6,82,0,00,5,84,-6,82,0,00,5,84
6736,0,00,0,39,-10,09,0,20,0,10,-7,00,0,00,14,00,-6,85,0,00,7,07,-6,85,0,00,7,07
6766,-0,20,0,39,-10,09,0,00,0,10,-7,00,0,00,0,00,-6,87,0,00,6,01,-6,87,0,00,6,01
6791,-0,20,0,39,-10,09,0,00,0,10,-7,00,0,00,0,00,-6,89,0,00,5,11,-6,89,0,00,5,11
6812,-0,20,0,39,-10,09,0,00,0,10,-7,00,0,00,0,00,-6,91,0,00,4,34,-6,91,0,00,4,34
6841,-0,20,0,39,-10,09,0,00,0,10,-7,00,0,00,0,00,-6,92,0,00,3,69,-6,92,0,00,3,69
6866,-0,20,0,39,-10,09,0,00,0,10,-7,00,0,00,0,00,-6,93,0,00,3,14,-6,93,0,00,3,14
6891,-0,20,0,39,-10,09,0,00,0,10,-7,00,0,00,0,00,-6,94,0,00,2,67,-6,94,0,00,2,67
6917,-0,20,0,39,-10,09,0,00,0,10,-7,00,0,00,0,00,-6,95,0,00,2,27,-6,95,0,00,2,27
6938,0,00,0,39,-10,09,0,20,0,10,-7,00,0,00,14,00,-7,00,0,00,4,03,-7,00,0,00,4,03
6962,0,00,0,39,-10,09,0,20,0,10,-7,00,0,00,14,00,-7,00,0,00,5,52,-7,00,0,00,5,52
6980,0,00,0,29,-10,19,0,20,0,00,-0,00,0,00,14,00,-5,95,0,00,6,79,-5,95,0,00,6,79
6996,0,00,0,29,-10,19,0,20,0,00,-0,00,0,00,14,00,-5,06,0,00,7,87,-5,06,0,00,7,87
7013,0,00,0,29,-10,19,0,20,0,00,-0,00,0,00,14,00,-4,30,0,00,8,79,-4,30,0,00,8,79
7029,0,00,0,29,-10,09,0,20,0,00,-0,00,0,00,14,00,-3,65,0,00,9,57,-3,65,0,00,9,57
7046,-0,20,0,39,-10,09,0,00,0,10,-7,00,0,00,0,00,-4,16,0,00,8,14,-4,16,0,00,8,14
7063,-0,20,0,29,-10,19,0,00,0,00,-0,00,0,00,0,00,-3,53,0,00,6,92,-3,53,0,00,6,92
7079,0,00,0,29,-10,19,0,20,0,00,-0,00,0,00,14,00,-3,00,0,00,7,98,-3,00,0,00,7,98
7097,-0,20,0,39,-10,09,0,00,0,10,-7,00,0,00,0,00,-3,60,0,00,6,78,-3,60,0,00,6,78
7113,-0,20,0,39,-10,09,0,00,0,10,-7,00,0,00,0,00,-4,11,0,00,5,77,-4,11,0,00,5,77
7131,0,00,0,39,-10,09,0,20,0,10,-7,00,0,00,14,00,-4,55,0,00,7,00,-4,55,0,00,7,00
7148,0,00,0,39,-10,09,0,20,0,10,-7,00,0,00,14,00,-4,91,0,00,8,05,-4,91,0,00,8,05
7164,0,00,0,39,-10,09,0,20,0,10,-7,00,0,00,14,00,-5,23,0,00,8,94,-5,23,0,00,8,94
7181,0,00,0,39,-10,09,0,20,0,10,-7,00,0,00,14,00,-5,49,0,00,9,70,-5,49,0,00,9,70
7198,0,00,0,39,-10,09,0,20,0,10,-7,00,0,00,14,00,-5,72,0,00,10,35,-5,72,0,00,10,35
7214,0,00,0,39,-10,09,0,20,0,10,-7,00,0,00,14,00,-5,91,0,00,10,89,-5,91,0,00,10,89
7231,0,00,0,39,-10,09,0,20,0,10,-7,00,0,00,14,00,-6,07,0,00,11,36,-6,07,0,00,11,36
7248,-0,20,0,39,-10,09,0,00,0,10,-7,00,0,00,0,00,-6,21,0,00,9,66,-6,21,0,00,9,66
7264,-0,20,0,39,-10,09,0,00,0,10,-7,00,0,00,0,00,-6,33,0,00,8,21,-6,33,0,00,8,21
7281,-0,20,0,39,-10,09,0,00,0,10,-7,00,0,00,0,00,-6,43,0,00,6,98,-6,43,0,00,6,98
7297,-0,20,0,39,-10,09,0,00,0,10,-7,00,0,00,0,00,-6,52,0,00,5,93,-6,52,0,00,5,93
7316,-0,20,0,39,-10,09,0,00,0,10,-7,00,0,00,0,00,-6,59,0,00,5,04,-6,59,0,00,5,04
7331,-0,20,0,39,-10,09,0,00,0,10,-7,00,0,00,0,00,-6,65,0,00,4,28,-6,65,0,00,4,28
7348,-0,20,0,39,-10,09,0,00,0,10,-7,00,0,00,0,00,-6,70,0,00,3,64,-6,70,0,00,3,64
7364,-0,20,0,39,-10,09,0,00,0,10,-7,00,0,00,0,00,-6,75,0,00,3,10,-6,75,0,00,3,10
7381,-0,20,0,39,-10,09,0,00,0,10,-7,00,0,00,0,00,-6,79,0,00,2,63,-6,79,0,00,2,63
7398,-0,20,0,29,-10,19,0,00,0,00,-0,00,0,00,0,00,-5,77,0,00,2,24,-5,77,0,00,2,24
7418,-0,20,0,29,-10,09,0,00,0,00,-0,00,0,00,0,00,-4,90,0,00,1,90,-4,90,0,00,1,90
7434,-0,20,0,39,-10,09,0,00,0,10,-7,00,0,00,0,00,-5,22,0,00,1,62,-5,22,0,00,1,62
7450,-0,20,0,39,-10,09,0,00,0,10,-7,00,0,00,0,00,-5,48,0,00,1,37,-5,48,0,00,1,37
7466,-0,20,0,39,-10,09,0,00,0,10,-7,00,0,00,0,00,-5,71,0,00,1,17,-5,71,0,00,1,17
7481,-0,20,0,39,-10,19,0,00,0,10,-7,00,0,00,0,00,-5,91,0,00,0,99,-5,91,0,00,0,99
7497,-0,20,0,29,-10,19,0,00,0,00,-0,00,0,00,0,00,-5,02,0,00,0,84,-5,02,0,00,0,84
7514,-0,20,0,29,-10,19,0,00,0,00,-0,00,0,00,0,00,-4,27,0,00,0,72,-4,27,0,00,0,72
7531,-0,20,0,29,-10,19,0,00,0,00,-0,00,0,00,0,00,-3,63,0,00,0,61,-3,63,0,00,0,61
7549,-0,20,0,29,-10,19,0,00,0,00,-0,00,0,00,0,00,-3,08,0,00,0,52,-3,08,0,00,0,52
7567,-0,20,0,29,-10,19,0,00,0,00,-0,00,0,00,0,00,-2,62,0,00,0,44,-2,62,0,00,0,44
7585,-0,20,0,29,-10,19,0,00,0,00,-0,00,0,00,0,00,-2,23,0,00,0,37,-2,23,0,00,0,37
7601,-0,20,0,29,-10,29,0,00,0,00,-0,00,0,00,0,00,-1,89,0,00,0,32,-1,89,0,00,0,32
7617,-0,20,0,20,-10,29,0,00,-0,09,6,30,0,00,0,00,-0,66,0,00,0,27,-0,66,0,00,0,27
7634,-0,20,0,29,-10,00,0,00,0,00,-0,00,0,00,0,00,-0,56,0,00,0,23,-0,56,0,00,0,23
7650,0,20,0,29,-10,00,0,40,0,00,-0,00,0,00,28,00,-0,48,0,00,4,40,-0,48,0,00,4,40
7666,0,20,0,29,-10,00,0,40,0,00,-0,00,0,00,28,00,-0,41,0,00,7,94,-0,41,0,00,7,94
7682,0,20,0,29,-10,00,0,40,0,00,-0,00,0,00,28,00,-0,35,0,00,10,95,-0,35,0,00,10,95
7700,0,00,0,39,-10,29,0,20,0,10,-7,00,0,00,14,00,-1,34,0,00,11,40,-1,34,0,00,11,40
7716,0,00,0,39,-10,29,0,20,0,10,-7,00,0,00,14,00,-2,19,0,00,11,79,-2,19,0,00,11,79
7732,0,00,0,39,-10,29,0,20,0,10,-7,00,0,00,14,00,-2,91,0,00,12,12,-2,91,0,00,12,12
7751,0,00,0,39,-10,19,0,20,0,10,-7,00,0,00,14,00,-3,53,0,00,12,41,-3,53,0,00,12,41
7770,-0,20,0,29,-10,19,0,00,0,00,-0,00,0,00,0,00,-3,00,0,00,10,54,-3,00,0,00,10,54
7787,0,00,0,39,-10,09,0,20,0,10,-7,00,0,00,14,00,-3,60,0,00,11,06,-3,60,0,00,11,06
7803,0,00,0,39,-10,09,0,20,0,10,-7,00,0,00,14,00,-4,11,0,00,11,50,-4,11,0,00,11,50
7819,-0,20,0,29,-10,19,0,00,0,00,-0,00,0,00,0,00,-3,49,0,00,9,78,-3,49,0,00,9,78
7836,-0,20,0,29,-10,19,0,00,0,00,-0,00,0,00,0,00,-2,97,0,00,8,31,-2,97,0,00,8,31
7852,-0,20,0,29,-10,00,0,00,0,00,-0,00,0,00,0,00,-2,52,0,00,7,06,-2,52,0,00,7,06
7869,-0,20,0,29,-10,00,0,00,0,00,-0,00,0,00,0,00,-2,14,0,00,6,00,-2,14,0,00,6,00
7885,-0,20,0,29,-10,00,0,00,0,00,-0,00,0,00,0,00,-1,82,0,00,5,10,-1,82,0,00,5,10
7901,-0,20,0,29,-10,09,0,00,0,00,-0,00,0,00,0,00,-1,55,0,00,4,34,-1,55,0,00,4,34
7920,0,00,0,39,-10,09,0,20,0,10,-7,00,0,00,14,00,-2,37,0,00,5,79,-2,37,0,00,5,79
7935,0,00,0,39,-10,09,0,20,0,10,-7,00,0,00,14,00,-3,06,0,00,7,02,-3,06,0,00,7,02
7951,-0,20,0,39,-10,09,0,00,0,10,-7,00,0,00,0,00,-3,65,0,00,5,97,-3,65,0,00,5,97
7970,0,20,0,20,-9,90,0,40,-0,09,6,30,0,00,28,00,-2,16,0,00,9,27,-2,16,0,00,9,27
7986,0,20,0,20,-9,90,0,40,-0,09,6,30,0,00,28,00,-0,89,0,00,12,08,-0,89,0,00,12,08
8002,0,20,0,20,-9,90,0,40,-0,09,6,30,0,00,28,00,0,19,0,00,14,47,0,19,0,00,14,47
8019,0,20,0,20,-9,90,0,40,-0,09,6,30,0,00,28,00,1,10,0,00,16,50,1,10,0,00,16,50
8035,0,20,0,20,-9,90,0,40,-0,09,6,30,0,00,28,00,1,88,0,00,18,22,1,88,0,00,18,22
8051,0,20,0,20,-10,09,0,40,-0,09,6,30,0,00,28,00,2,55,0,00,19,69,2,55,0,00,19,69
8067,-0,29,0,20,-10,09,-0,09,-0,09,6,30,0,00,-6,30,3,11,0,00,15,79,3,11,0,00,15,79
8083,-0,29,0,20,-10,09,-0,09,-0,09,6,30,0,00,-6,30,3,59,0,00,12,48,3,59,0,00,12,48
8098,-0,29,0,20,-10,09,-0,09,-0,09,6,30,0,00,-6,30,3,99,0,00,9,66,3,99,0,00,9,66
8115,-0,29,0,39,-10,09,-0,09,0,10,-7,00,0,00,-6,30,2,35,0,00,7,27,2,35,0,00,7,27
8131,-0,29,0,39,-10,09,-0,09,0,10,-7,00,0,00,-6,30,0,94,0,00,5,23,0,94,0,00,5,23
8148,-0,20,0,29,-10,00,0,00,0,00,-0,00,0,00,0,00,0,80,0,00,4,45,0,80,0,00,4,45
8164,-0,20,0,29,-10,00,0,00,0,00,-0,00,0,00,0,00,0,68,0,00,3,78,0,68,0,00,3,78
8181,-0,20,0,29,-10,00,0,00,0,00,-0,00,0,00,0,00,0,58,0,00,3,21,0,58,0,00,3,21
8197,-0,20,0,29,-10,00,0,00,0,00,-0,00,0,00,0,00,0,49,0,00,2,73,0,49,0,00,2,73
8214,-0,20,0,39,-10,09,0,00,0,10,-7,00,0,00,0,00,-0,63,0,00,2,32,-0,63,0,00,2,32
8230,-0,20,0,39,-10,09,0,00,0,10,-7,00,0,00,0,00,-1,59,0,00,1,97,-1,59,0,00,1,97
8246,-0,20,0,39,-10,09,0,00,0,10,-7,00,0,00,0,00,-2,40,0,00,1,68,-2,40,0,00,1,68
8262,-0,20,0,39,-10,09,0,00,0,10,-7,00,0,00,0,00,-3,09,0,00,1,43,-3,09,0,00,1,43
8279,-0,20,0,20,-10,09,0,00,-0,09,6,30,0,00,0,00,-1,68,0,00,1,21,-1,68,0,00,1,21
8296,0,29,0,78,-10,29,0,49,0,49,-34,30,0,00,34,30,-6,57,0,00,6,18,-6,57,0,00,6,18
8312,0,29,0,78,-10,29,0,49,0,49,-34,30,0,00,34,30,-10,73,0,00,10,39,-10,73,0,00,10,39
8330,-0,20,0,20,-10,09,0,00,-0,09,6,30,0,00,0,00,-8,18,0,00,8,83,-8,18,0,00,8,83
8354,-0,20,0,20,-10,09,0,00,-0,09,6,30,0,00,0,00,-6,01,0,00,7,51,-6,01,0,00,7,51
8371,-0,20,0,39,-10,09,0,00,0,10,-7,00,0,00,0,00,-6,16,0,00,6,38,-6,16,0,00,6,38
8388,-0,20,0,39,-10,09,0,00,0,10,-7,00,0,00,0,00,-6,28,0,00,5,43,-6,28,0,00,5,43
8404,-0,20,0,39,-10,09,0,00,0,10,-7,00,0,00,0,00,-6,39,0,00,4,61,-6,39,0,00,4,61
8421,0,00,0,49,-10,49,0,20,0,20,-14,00,0,00,14,00,-7,53,0,00,6,02,-7,53,0,00,6,02
8437,0,00,0,49,-10,29,0,20,0,20,-14,00,0,00,14,00,-8,50,0,00,7,22,-8,50,0,00,7,22
8453,-0,20,0,39,-10,29,0,00,0,10,-7,00,0,00,0,00,-8,28,0,00,6,13,-8,28,0,00,6,13
8471,-0,20,0,39,-10,19,0,00,0,10,-7,00,0,00,0,00,-8,08,0,00,5,21,-8,08,0,00,5,21
8488,-0,29,0,10,-10,19,-0,09,-0,19,13,30,0,00,-6,30,-4,88,0,00,3,49,-4,88,0,00,3,49
8504,-0,29,0,20,-10,09,-0,09,-0,09,6,30,0,00,-6,30,-3,20,0,00,2,02,-3,20,0,00,2,02
8520,-0,20,0,20,-10,09,0,00,-0,09,6,30,0,00,0,00,-1,78,0,00,1,72,-1,78,0,00,1,72
8535,-0,20,0,20,-10,09,0,00,-0,09,6,30,0,00,0,00,-0,56,0,00,1,46,-0,56,0,00,1,46
8551,-0,20,0,20,-10,09,0,00,-0,09,6,30,0,00,0,00,0,47,0,00,1,24,0,47,0,00,1,24
8567,-0,20,-0,10,-10,00,0,00,-0,39,27,30,0,00,0,00,4,49,0,00,1,05,4,49,0,00,1,05
8583,-0,20,-0,10,-10,00,0,00,-0,39,27,30,0,00,0,00,7,91,0,00,0,90,7,91,0,00,0,90
8602,-0,20,-0,10,-10,00,0,00,-0,39,27,30,0,00,0,00,10,82,0,00,0,76,10,82,0,00,0,76
8621,-0,20,-0,10,-9,70,0,00,-0,39,27,30,0,00,0,00,13,29,0,00,0,65,13,29,0,00,0,65
8637,-0,29,-0,29,-9,70,-0,09,-0,58,40,60,0,00,-6,30,17,39,0,00,-0,39,17,39,0,00,-0,39
8654,-0,29,-0,20,-10,29,-0,09,-0,49,34,30,0,00,-6,30,19,93,0,00,-1,28,19,93,0,00,-1,28
8671,0,20,-0,20,-10,29,0,40,-0,49,34,30,0,00,28,00,22,08,0,00,3,11,22,08,0,00,3,11
8686,0,20,-0,20,-10,29,0,40,-0,49,34,30,0,00,28,00,23,91,0,00,6,84,23,91,0,00,6,84
8702,0,20,-0,20,-10,29,0,40,-0,49,34,30,0,00,28,00,25,47,0,00,10,02,25,47,0,00,10,02
8718,0,00,-0,39,-10,00,0,20,-0,68,47,60,0,00,14,00,28,79,0,00,10,62,28,79,0,00,10,62
8734,0,00,-0,39,-10,00,0,20,-0,68,47,60,0,00,14,00,31,61,0,00,11,12,31,61,0,00,11,12
8751,0,00,-0,39,-10,00,0,20,-0,68,47,60,0,00,14,00,34,01,0,00,11,55,34,01,0,00,11,55
8767,0,00,-0,39,-10,00,0,20,-0,68,47,60,0,00,14,00,36,05,0,00,11,92,36,05,0,00,11,92
8783,-0,20,-0,49,-10,29,0,00,-0,78,54,60,0,00,0,00,38,83,0,00,10,13,38,83,0,00,10,13
8799,-0,20,-0,49,-10,09,0,00,-0,78,54,60,0,00,0,00,41,20,0,00,8,61,41,20,0,00,8,61
8814,0,00,-0,78,-10,09,0,20,-1,07,74,90,0,00,14,00,46,25,0,00,9,42,46,25,0,00,9,42
8831,0,00,-0,78,-9,90,0,20,-1,07,74,90,0,00,14,00,50,55,0,00,10,11,50,55,0,00,10,11
8849,0,00,-0,98,-9,90,0,20,-1,27,88,90,0,00,14,00,56,30,0,00,10,69,56,30,0,00,10,69
8865,0,00,-0,98,-9,90,0,20,-1,27,88,90,0,00,14,00,61,19,0,00,11,19,61,19,0,00,11,19
8882,0,00,-0,98,-9,90,0,20,-1,27,88,90,0,00,14,00,65,35,0,00,11,61,65,35,0,00,11,61
8899,0,00,-0,98,-9,90,0,20,-1,27,88,90,0,00,14,00,68,88,0,00,11,97,68,88,0,00,11,97
8915,0,00,-0,98,-9,90,0,20,-1,27,88,90,0,00,14,00,71,88,0,00,12,27,71,88,0,00,12,27
8931,-0,20,-0,88,-10,00,0,00,-1,17,81,90,0,00,0,00,73,39,0,00,10,43,73,39,0,00,10,43
8947,-0,20,-0,88,-10,00,0,00,-1,17,81,90,0,00,0,00,74,66,0,00,8,87,74,66,0,00,8,87
8963,-0,20,-0,88,-10,00,0,00,-1,17,81,90,0,00,0,00,75,75,0,00,7,54,75,75,0,00,7,54
8980,-0,20,-0,88,-10,19,0,00,-1,17,81,90,0,00,0,00,76,67,0,00,6,41,76,67,0,00,6,41
8998,0,00,-0,69,-10,19,0,20,-0,98,68,60,0,00,14,00,75,46,0,00,7,55,75,46,0,00,7,55
9016,0,00,-0,49,-10,29,0,20,-0,78,54,60,0,00,14,00,72,33,0,00,8,51,72,33,0,00,8,51
9031,-0,20,-0,49,-10,29,0,00,-0,78,54,60,0,00,0,00,69,67,0,00,7,24,69,67,0,00,7,24
9048,-0,20,-0,49,-10,29,0,00,-0,78,54,60,0,00,0,00,67,41,0,00,6,15,67,41,0,00,6,15
9065,-0,20,-0,49,-10,29,0,00,-0,78,54,60,0,00,0,00,65,49,0,00,5,23,65,49,0,00,5,23
9083,0,00,-0,49,-10,29,0,20,-0,78,54,60,0,00,14,00,63,86,0,00,6,54,63,86,0,00,6,54
9098,0,00,-0,49,-10,29,0,20,-0,78,54,60,0,00,14,00,62,47,0,00,7,66,62,47,0,00,7,66
9116,0,00,-0,49,-10,29,0,20,-0,78,54,60,0,00,14,00,61,29,0,00,8,61,61,29,0,00,8,61
9131,0,00,-0,49,-9,90,0,20,-0,78,54,60,0,00,14,00,60,28,0,00,9,42,60,28,0,00,9,42
9148,0,00,-0,59,-9,90,0,20,-0,88,61,60,0,00,14,00,60,48,0,00,10,11,60,48,0,00,10,11
9172,-0,20,-0,69,-10,00,0,00,-0,98,68,60,0,00,0,00,61,70,0,00,8,59,61,70,0,00,8,59
9193,-0,20,-0,69,-10,00,0,00,-0,98,68,60,0,00,0,00,62,73,0,00,7,30,62,73,0,00,7,30
9212,-0,20,-0,69,-10,00,0,00,-0,98,68,60,0,00,0,00,63,61,0,00,6,21,63,61,0,00,6,21
9230,0,00,-0,29,-9,90,0,20,-0,58,40,60,0,00,14,00,60,16,0,00,7,38,60,16,0,00,7,38
9247,0,00,-0,29,-9,90,0,20,-0,58,40,60,0,00,14,00,57,23,0,00,8,37,57,23,0,00,8,37
9263,0,00,-0,29,-9,90,0,20,-0,58,40,60,0,00,14,00,54,73,0,00,9,21,54,73,0,00,9,21
9279,0,00,-0,29,-10,19,0,20,-0,58,40,60,0,00,14,00,52,61,0,00,9,93,52,61,0,00,9,93
9301,-0,20,-0,29,-10,19,0,00,-0,58,40,60,0,00,0,00,50,81,0,00,8,44,50,81,0,00,8,44
9316,-0,20,-0,29,-10,19,0,00,-0,58,40,60,0,00,0,00,49,28,0,00,7,18,49,28,0,00,7,18
9333,-0,20,-0,29,-10,19,0,00,-0,58,40,60,0,00,0,00,47,98,0,00,6,10,47,98,0,00,6,10
9352,0,00,0,10,-10,19,0,20,-0,19,13,30,0,00,14,00,42,78,0,00,7,28,42,78,0,00,7,28
9368,0,00,0,10,-10,19,0,20,-0,19,13,30,0,00,14,00,38,35,0,00,8,29,38,35,0,00,8,29
9384,0,00,0,29,-10,19,0,20,0,00,-0,00,0,00,14,00,32,60,0,00,9,15,32,60,0,00,9,15
9400,0,00,0,29,-10,19,0,20,0,00,-0,00,0,00,14,00,27,71,0,00,9,88,27,71,0,00,9,88
9418,0,00,0,29,-10,19,0,20,0,00,-0,00,0,00,14,00,23,55,0,00,10,49,23,55,0,00,10,49
9434,0,00,0,29,-10,39,0,20,0,00,-0,00,0,00,14,00,20,02,0,00,11,02,20,02,0,00,11,02
9450,-0,49,0,29,-10,39,-0,29,0,00,-0,00,0,00,-20,30,17,02,0,00,6,32,17,02,0,00,6,32
9466,-0,49,0,29,-10,39,-0,29,0,00,-0,00,0,00,-20,30,14,47,0,00,2,33,14,47,0,00,2,33
9481,-0,49,0,29,-10,39,-0,29,0,00,-0,00,0,00,-20,30,12,30,0,00,-1,07,12,30,0,00,-1,07
9498,0,29,0,39,-10,29,0,49,0,10,-7,00,0,00,34,30,9,40,0,00,4,24,9,40,0,00,4,24
9516,0,29,0,39,-10,29,0,49,0,10,-7,00,0,00,34,30,6,94,0,00,8,75,6,94,0,00,8,75
9533,0,20,0,39,-10,29,0,40,0,10,-7,00,0,00,28,00,4,85,0,00,11,64,4,85,0,00,11,64
9552,0,20,0,39,-10,00,0,40,0,10,-7,00,0,00,28,00,3,07,0,00,14,09,3,07,0,00,14,09
9568,-0,20,0,29,-10,00,0,00,0,00,-0,00,0,00,0,00,2,61,0,00,11,98,2,61,0,00,11,98
9583,-0,20,0,29,-10,19,0,00,0,00,-0,00,0,00,0,00,2,22,0,00,10,18,2,22,0,00,10,18
9599,-0,20,0,29,-10,19,0,00,0,00,-0,00,0,00,0,00,1,89,0,00,8,65,1,89,0,00,8,65
9614,-0,20,0,29,-10,19,0,00,0,00,-0,00,0,00,0,00,1,60,0,00,7,36,1,60,0,00,7,36
9631,-0,20,0,29,-10,19,0,00,0,00,-0,00,0,00,0,00,1,36,0,00,6,25,1,36,0,00,6,25
9649,0,00,0,29,-10,19,0,20,0,00,-0,00,0,00,14,00,1,16,0,00,7,41,1,16,0,00,7,41
9664,0,00,0,29,-10,19,0,20,0,00,-0,00,0,00,14,00,0,98,0,00,8,40,0,98,0,00,8,40
9681,0,00,0,39,-10,09,0,20,0,10,-7,00,0,00,14,00,-0,21,0,00,9,24,-0,21,0,00,9,24
9699,0,00,0,39,-10,09,0,20,0,10,-7,00,0,00,14,00,-1,23,0,00,9,96,-1,23,0,00,9,96
9719,0,00,0,39,-10,09,0,20,0,10,-7,00,0,00,14,00,-2,10,0,00,10,56,-2,10,0,00,10,56
9735,0,00,0,39,-10,09,0,20,0,10,-7,00,0,00,14,00,-2,83,0,00,11,08,-2,83,0,00,11,08
9751,0,00,0,39,-10,09,0,20,0,10,-7,00,0,00,14,00,-3,46,0,00,11,52,-3,46,0,00,11,52
9767,0,00,0,39,-10,09,0,20,0,10,-7,00,0,00,14,00,-3,99,0,00,11,89,-3,99,0,00,11,89
9783,0,00,0,39,-10,09,0,20,0,10,-7,00,0,00,14,00,-4,44,0,00,12,21,-4,44,0,00,12,21
9799,0,29,0,69,-10,09,0,49,0,40,-28,00,0,00,34,30,-7,97,0,00,15,52,-7,97,0,00,15,52
9814,0,29,0,69,-10,09,0,49,0,40,-28,00,0,00,34,30,-10,98,0,00,18,34,-10,98,0,00,18,34
9830,0,00,0,29,-10,00,0,20,0,00,-0,00,0,00,14,00,-9,33,0,00,17,69,-9,33,0,00,17,69
9846,0,00,0,29,-10,00,0,20,0,00,-0,00,0,00,14,00,-7,93,0,00,17,13,-7,93,0,00,17,13
9862,0,00,0,29,-10,00,0,20,0,00,-0,00,0,00,14,00,-6,74,0,00,16,66,-6,74,0,00,16,66
9879,0,00,0,29,-10,19,0,20,0,00,-0,00,0,00,14,00,-5,73,0,00,16,26,-5,73,0,00,16,26
9896,-0,20,0,29,-10,19,0,00,0,00,-0,00,0,00,0,00,-4,87,0,00,13,82,-4,87,0,00,13,82
9915,-0,20,0,29,-10,19,0,00,0,00,-0,00,0,00,0,00,-4,14,0,00,11,75,-4,14,0,00,11,75
9932,-0,20,0,29,-10,19,0,00,0,00,-0,00,0,00,0,00,-3,52,0,00,9,99,-3,52,0,00,9,99
9952,-0,20,0,39,-10,09,0,00,0,10,-7,00,0,00,0,00,-4,04,0,00,8,49,-4,04,0,00,8,49
9968,-0,20,0,39,-10,09,0,00,0,10,-7,00,0,00,0,00,-4,49,0,00,7,22,-4,49,0,00,7,22
9985,-0,20,0,39,-10,09,0,00,0,10,-7,00,0,00,0,00,-4,86,0,00,6,13,-4,86,0,00,6,13
10001,-0,20,0,39,-10,09,0,00,0,10,-7,00,0,00,0,00,-5,18,0,00,5,21,-5,18,0,00,5,21
10018,-0,20,0,39,-10,09,0,00,0,10,-7,00,0,00,0,00,-5,46,0,00,4,43,-5,46,0,00,4,43
10034,-0,20,0,29,-10,19,0,00,0,00,-0,00,0,00,0,00,-4,64,0,00,3,77,-4,64,0,00,3,77
10052,-0,20,0,29,-10,19,0,00,0,00,-0,00,0,00,0,00,-3,94,0,00,3,20,-3,94,0,00,3,20
10068,-0,20,0,39,-10,09,0,00,0,10,-7,00,0,00,0,00,-4,40,0,00,2,72,-4,40,0,00,2,72
10085,-0,20,0,39,-10,09,0,00,0,10,-7,00,0,00,0,00,-4,79,0,00,2,31,-4,79,0,00,2,31
10102,0,00,0,29,-10,19,0,20,0,00,-0,00,0,00,14,00,-4,07,0,00,4,07,-4,07,0,00,4,07
10118,0,00,0,29,-10,19,0,20,0,00,-0,00,0,00,14,00,-3,46,0,00,5,56,-3,46,0,00,5,56
10134,0,00,0,29,-10,19,0,20,0,00,-0,00,0,00,14,00,-2,94,0,00,6,82,-2,94,0,00,6,82
10151,0,00,0,29,-10,19,0,20,0,00,-0,00,0,00,14,00,-2,50,0,00,7,90,-2,50,0,00,7,90
10167,-0,20,0,29,-10,19,0,00,0,00,-0,00,0,00,0,00,-2,13,0,00,6,71,-2,13,0,00,6,71
10183,-0,20,0,29,-10,19,0,00,0,00,-0,00,0,00,0,00,-1,81,0,00,5,71,-1,81,0,00,5,71
10199,-0,20,0,29,-10,19,0,00,0,00,-0,00,0,00,0,00,-1,54,0,00,4,85,-1,54,0,00,4,85
10216,-0,20,0,29,-10,19,0,00,0,00,-0,00,0,00,0,00,-1,31,0,00,4,12,-1,31,0,00,4,12
10231,0,00,0,29,-10,19,0,20,0,00,-0,00,0,00,14,00,-1,11,0,00,5,61,-1,11,0,00,5,61
10247,-0,20,0,29,-10,19,0,00,0,00,-0,00,0,00,0,00,-0,94,0,00,4,76,-0,94,0,00,4,76
10264,-0,20,0,29,-10,19,0,00,0,00,-0,00,0,00,0,00,-0,80,0,00,4,05,-0,80,0,00,4,05
10280,-0,20,0,29,-10,19,0,00,0,00,-0,00,0,00,0,00,-0,68,0,00,3,44,-0,68,0,00,3,44
10295,-0,20,0,29,-10,19,0,00,0,00,-0,00,0,00,0,00,-0,58,0,00,2,93,-0,58,0,00,2,93
10312,-0,20,0,39,-10,09,0,00,0,10,-7,00,0,00,0,00,-1,54,0,00,2,49,-1,54,0,00,2,49
10329,-0,20,0,39,-10,09,0,00,0,10,-7,00,0,00,0,00,-2,36,0,00,2,11,-2,36,0,00,2,11
10345,-0,20,0,39,-10,09,0,00,0,10,-7,00,0,00,0,00,-3,06,0,00,1,80,-3,06,0,00,1,80
10364,-0,20,0,20,-10,09,0,00,-0,09,6,30,0,00,0,00,-1,65,0,00,1,53,-1,65,0,00,1,53
10382,-0,20,0,20,-10,09,0,00,-0,09,6,30,0,00,0,00,-0,46,0,00,1,30,-0,46,0,00,1,30
10399,-0,20,0,29,-10,19,0,00,0,00,-0,00,0,00,0,00,-0,39,0,00,1,10,-0,39,0,00,1,10
10418,-0,20,0,29,-10,19,0,00,0,00,-0,00,0,00,0,00,-0,33,0,00,0,94,-0,33,0,00,0,94
10434,-0,20,0,29,-10,19,0,00,0,00,-0,00,0,00,0,00,-0,28,0,00,0,80,-0,28,0,00,0,80
10450,-0,20,0,29,-10,09,0,00,0,00,-0,00,0,00,0,00,-0,24,0,00,0,68,-0,24,0,00,0,68
10466,-0,20,0,39,-10,09,0,00,0,10,-7,00,0,00,0,00,-1,25,0,00,0,58,-1,25,0,00,0,58
10483,-0,20,0,39,-10,09,0,00,0,10,-7,00,0,00,0,00,-2,12,0,00,0,49,-2,12,0,00,0,49
10499,-0,20,0,39,-10,09,0,00,0,10,-7,00,0,00,0,00,-2,85,0,00,0,42,-2,85,0,00,0,42
10514,-0,20,0,39,-10,09,0,00,0,10,-7,00,0,00,0,00,-3,47,0,00,0,35,-3,47,0,00,0,35
10530,0,00,0,39,-10,09,0,20,0,10,-7,00,0,00,14,00,-4,00,0,00,2,40,-4,00,0,00,2,40
10546,0,00,0,39,-10,09,0,20,0,10,-7,00,0,00,14,00,-4,45,0,00,4,14,-4,45,0,00,4,14
10562,0,00,0,39,-10,09,0,20,0,10,-7,00,0,00,14,00,-4,83,0,00,5,62,-4,83,0,00,5,62
10581,0,00,0,39,-10,09,0,20,0,10,-7,00,0,00,14,00,-5,16,0,00,6,88,-5,16,0,00,6,88
10597,0,00,0,39,-10,19,0,20,0,10,-7,00,0,00,14,00,-5,43,0,00,7,95,-5,43,0,00,7,95
10614,-0,20,0,49,-10,19,0,00,0,20,-14,00,0,00,0,00,-6,72,0,00,6,75,-6,72,0,00,6,75
10631,-0,20,0,49,-10,19,0,00,0,20,-14,00,0,00,0,00,-7,81,0,00,5,74,-7,81,0,00,5,74
10654,-0,20,0,49,-10,19,0,00,0,20,-14,00,0,00,0,00,-8,74,0,00,4,88,-8,74,0,00,4,88
10678,-0,20,0,39,-10,09,0,00,0,10,-7,00,0,00,0,00,-8,48,0,00,4,15,-8,48,0,00,4,15
10703,-0,20,0,39,-10,09,0,00,0,10,-7,00,0,00,0,00,-8,26,0,00,3,53,-8,26,0,00,3,53
10729,-0,20,0,29,-10,19,0,00,0,00,-0,00,0,00,0,00,-7,02,0,00,3,00,-7,02,0,00,3,00
10751,0,00,0,29,-10,09,0,20,0,00,-0,00,0,00,14,00,-5,97,0,00,4,65,-5,97,0,00,4,65
10779,-0,20,0,39,-10,09,0,00,0,10,-7,00,0,00,0,00,-6,12,0,00,3,95,-6,12,0,00,3,95
10795,-0,20,0,39,-10,09,0,00,0,10,-7,00,0,00,0,00,-6,25,0,00,3,36,-6,25,0,00,3,36
10813,-0,20,0,39,-10,09,0,00,0,10,-7,00,0,00,0,00,-6,36,0,00,2,85,-6,36,0,00,2,85
10829,-0,20,0,39,-10,09,0,00,0,10,-7,00,0,00,0,00,-6,46,0,00,2,43,-6,46,0,00,2,43
10846,-0,20,0,29,-10,19,0,00,0,00,-0,00,0,00,0,00,-5,49,0,00,2,06,-5,49,0,00,2,06
10862,0,00,0,29,-10,19,0,20,0,00,-0,00,0,00,14,00,-4,67,0,00,3,85,-4,67,0,00,3,85
10880,-0,20,0,29,-10,19,0,00,0,00,-0,00,0,00,0,00,-3,97,0,00,3,27,-3,97,0,00,3,27
10896,-0,20,0,29,-10,19,0,00,0,00,-0,00,0,00,0,00,-3,37,0,00,2,78,-3,37,0,00,2,78
10912,-0,20,0,29,-10,19,0,00,0,00,-0,00,0,00,0,00,-2,87,0,00,2,37,-2,87,0,00,2,37
10929,-0,20,0,29,-10,19,0,00,0,00,-0,00,0,00,0,00,-2,44,0,00,2,01,-2,44,0,00,2,01
10946,-0,20,0,49,-10,19,0,00,0,20,-14,00,0,00,0,00,-4,17,0,00,1,71,-4,17,0,00,1,71
10962,-0,20,0,49,-10,09,0,00,0,20,-14,00,0,00,0,00,-5,65,0,00,1,45,-5,65,0,00,1,45
10979,0,00,0,39,-10,09,0,20,0,10,-7,00,0,00,14,00,-5,85,0,00,3,34,-5,85,0,00,3,34
11007,0,00,0,39,-10,09,0,20,0,10,-7,00,0,00,14,00,-6,02,0,00,4,93,-6,02,0,00,4,93
11030,0,00,0,39,-10,09,0,20,0,10,-7,00,0,00,14,00,-6,17,0,00,6,29,-6,17,0,00,6,29
11047,-0,20,0,39,-10,09,0,00,0,10,-7,00,0,00,0,00,-6,29,0,00,5,35,-6,29,0,00,5,35
11063,-0,20,0,29,-10,19,0,00,0,00,-0,00,0,00,0,00,-5,35,0,00,4,55,-5,35,0,00,4,55
11080,-0,20,0,29,-10,19,0,00,0,00,-0,00,0,00,0,00,-4,55,0,00,3,87,-4,55,0,00,3,87
11096,-0,20,0,29,-10,19,0,00,0,00,-0,00,0,00,0,00,-3,86,0,00,3,29,-3,86,0,00,3,29
11113,-0,20,0,29,-10,19,0,00,0,00,-0,00,0,00,0,00,-3,28,0,00,2,79,-3,28,0,00,2,79
11130,-0,20,0,29,-10,19,0,00,0,00,-0,00,0,00,0,00,-2,79,0,00,2,37,-2,79,0,00,2,37
11147,-0,20,0,29,-10,19,0,00,0,00,-0,00,0,00,0,00,-2,37,0,00,2,02,-2,37,0,00,2,02
11165,0,00,0,29,-10,19,0,20,0,00,-0,00,0,00,14,00,-2,02,0,00,3,82,-2,02,0,00,3,82
11182,-0,29,0,10,-10,19,-0,09,-0,19,13,30,0,00,-6,30,0,28,0,00,2,30,0,28,0,00,2,30
11198,-0,29,0,10,-10,19,-0,09,-0,19,13,30,0,00,-6,30,2,23,0,00,1,01,2,23,0,00,1,01
11215,-0,29,0,10,-10,19,-0,09,-0,19,13,30,0,00,-6,30,3,89,0,00,-0,09,3,89,0,00,-0,09
11231,-0,29,0,10,-10,68,-0,09,-0,19,13,30,0,00,-6,30,5,30,0,00,-1,02,5,30,0,00,-1,02
11247,-0,59,0,69,-10,68,-0,39,0,40,-28,00,0,00,-27,30,0,31,0,00,-4,96,0,31,0,00,-4,96
11265,-0,59,0,39,-10,29,-0,39,0,10,-7,00,0,00,-27,30,-0,79,0,00,-8,31,-0,79,0,00,-8,31
11281,0,29,0,39,-10,29,0,49,0,10,-7,00,0,00,34,30,-1,72,0,00,-1,92,-1,72,0,00,-1,92
11297,0,29,0,49,-10,19,0,49,0,20,-14,00,0,00,34,30,-3,56,0,00,3,51,-3,56,0,00,3,51
11313,-0,20,0,49,-10,19,0,00,0,20,-14,00,0,00,0,00,-5,13,0,00,2,99,-5,13,0,00,2,99
11335,-0,20,0,39,-10,09,0,00,0,10,-7,00,0,00,0,00,-5,41,0,00,2,54,-5,41,0,00,2,54
11355,-0,20,0,39,-10,09,0,00,0,10,-7,00,0,00,0,00,-5,65,0,00,2,16,-5,65,0,00,2,16
11374,0,00,0,39,-10,09,0,20,0,10,-7,00,0,00,14,00,-5,85,0,00,3,93,-5,85,0,00,3,93
11395,0,00,0,39,-10,29,0,20,0,10,-7,00,0,00,14,00,-6,02,0,00,5,44,-6,02,0,00,5,44
11413,0,00,0,39,-10,29,0,20,0,10,-7,00,0,00,14,00,-6,17,0,00,6,73,-6,17,0,00,6,73
11432,0,00,0,39,-10,29,0,20,0,10,-7,00,0,00,14,00,-6,29,0,00,7,82,-6,29,0,00,7,82
11448,0,00,0,39,-10,09,0,20,0,10,-7,00,0,00,14,00,-6,40,0,00,8,75,-6,40,0,00,8,75
11464,0,00,0,39,-10,09,0,20,0,10,-7,00,0,00,14,00,-6,49,0,00,9,53,-6,49,0,00,9,53
11481,-0,20,0,39,-10,09,0,00,0,10,-7,00,0,00,0,00,-6,57,0,00,8,10,-6,57,0,00,8,10
11499,-0,20,0,39,-10,09,0,00,0,10,-7,00,0,00,0,00,-6,63,0,00,6,89,-6,63,0,00,6,89
11515,-0,20,0,39,-10,09,0,00,0,10,-7,00,0,00,0,00,-6,69,0,00,5,85,-6,69,0,00,5,85
11538,-0,20,0,29,-10,19,0,00,0,00,-0,00,0,00,0,00,-5,68,0,00,4,98,-5,68,0,00,4,98
11556,-0,20,0,29,-10,19,0,00,0,00,-0,00,0,00,0,00,-4,83,0,00,4,23,-4,83,0,00,4,23
11574,-0,20,0,29,-10,19,0,00,0,00,-0,00,0,00,0,00,-4,11,0,00,3,60,-4,11,0,00,3,60
11596,-0,20,0,29,-10,19,0,00,0,00,-0,00,0,00,0,00,-3,49,0,00,3,06,-3,49,0,00,3,06
11616,-0,20,0,29,-10,19,0,00,0,00,-0,00,0,00,0,00,-2,97,0,00,2,60,-2,97,0,00,2,60
11637,-0,20,0,29,-10,19,0,00,0,00,-0,00,0,00,0,00,-2,52,0,00,2,21,-2,52,0,00,2,21
11658,-0,20,0,39,-10,09,0,00,0,10,-7,00,0,00,0,00,-3,19,0,00,1,88,-3,19,0,00,1,88
11679,0,00,0,39,-10,09,0,20,0,10,-7,00,0,00,14,00,-3,76,0,00,3,70,-3,76,0,00,3,70
11697,-0,20,0,39,-10,09,0,00,0,10,-7,00,0,00,0,00,-4,25,0,00,3,14,-4,25,0,00,3,14
11715,-0,20,0,39,-10,09,0,00,0,10,-7,00,0,00,0,00,-4,66,0,00,2,67,-4,66,0,00,2,67
11736,-0,20,0,39,-10,09,0,00,0,10,-7,00,0,00,0,00,-5,01,0,00,2,27,-5,01,0,00,2,27
11752,-0,20,0,29,-10,19,0,00,0,00,-0,00,0,00,0,00,-4,26,0,00,1,93,-4,26,0,00,1,93
11769,-0,20,0,29,-10,09,0,00,0,00,-0,00,0,00,0,00,-3,62,0,00,1,64,-3,62,0,00,1,64
11785,0,29,0,69,-10,09,0,49,0,40,-28,00,0,00,34,30,-7,28,0,00,6,54,-7,28,0,00,6,54
11802,0,29,0,69,-10,00,0,49,0,40,-28,00,0,00,34,30,-10,39,0,00,10,70,-10,39,0,00,10,70
11831,-0,59,-0,10,-10,00,-0,39,-0,39,27,30,0,00,-27,30,-4,73,0,00,5,00,-4,73,0,00,5,00
11849,-0,59,-0,10,-10,00,-0,39,-0,39,27,30,0,00,-27,30,0,07,0,00,0,16,0,07,0,00,0,16
11869,-0,59,0,59,-10,00,-0,39,0,30,-21,00,0,00,-27,30,-3,09,0,00,-3,96,-3,09,0,00,-3,96
11892,-0,49,0,59,-9,90,-0,29,0,30,-21,00,0,00,-20,30,-5,78,0,00,-6,41,-5,78,0,00,-6,41
11910,0,00,0,69,-9,90,0,20,0,40,-28,00,0,00,14,00,-9,11,0,00,-3,35,-9,11,0,00,-3,35
11936,0,00,0,69,-9,90,0,20,0,40,-28,00,0,00,14,00,-11,94,0,00,-0,75,-11,94,0,00,-0,75
11954,0,00,0,69,-10,00,0,20,0,40,-28,00,0,00,14,00,-14,35,0,00,1,46,-14,35,0,00,1,46
11970,-0,20,0,29,-10,00,0,00,0,00,-0,00,0,00,0,00,-12,20,0,00,1,24,-12,20,0,00,1,24
11986,-0,20,0,88,-9,90,0,00,0,59,-41,30,0,00,0,00,-16,56,0,00,1,06,-16,56,0,00,1,06
12003,-0,20,0,88,-9,90,0,00,0,59,-41,30,0,00,0,00,-20,27,0,00,0,90,-20,27,0,00,0,90
12019,-0,20,0,88,-9,90,0,00,0,59,-41,30,0,00,0,00,-23,43,0,00,0,76,-23,43,0,00,0,76
12034,-0,20,0,88,-9,90,0,00,0,59,-41,30,0,00,0,00,-26,11,0,00,0,65,-26,11,0,00,0,65
12051,-0,20,0,88,-9,90,0,00,0,59,-41,30,0,00,0,00,-28,39,0,00,0,55,-28,39,0,00,0,55
12067,-0,20,0,88,-9,90,0,00,0,59,-41,30,0,00,0,00,-30,32,0,00,0,47,-30,32,0,00,0,47
12083,-0,59,1,08,-10,00,-0,39,0,79,-55,30,0,00,-27,30,-34,07,0,00,-3,70,-34,07,0,00,-3,70
12099,-0,59,1,08,-10,00,-0,39,0,79,-55,30,0,00,-27,30,-37,26,0,00,-7,24,-37,26,0,00,-7,24
12115,-0,49,1,08,-10,00,-0,29,0,79,-55,30,0,00,-20,30,-39,96,0,00,-9,20,-39,96,0,00,-9,20
12131,-0,49,1,08,-10,00,-0,29,0,79,-55,30,0,00,-20,30,-42,26,0,00,-10,86,-42,26,0,00,-10,86
12150,-0,49,1,08,-10,00,-0,29,0,79,-55,30,0,00,-20,30,-44,22,0,00,-12,28,-44,22,0,00,-12,28
12167,-0,49,1,27,-10,00,-0,29,0,98,-68,60,0,00,-20,30,-47,88,0,00,-13,48,-47,88,0,00,-13,48
12183,-0,49,1,27,-10,00,-0,29,0,98,-68,60,0,00,-20,30,-50,98,0,00,-14,50,-50,98,0,00,-14,50
12199,-0,78,1,37,-10,29,-0,58,1,08,-75,60,0,00,-40,60,-54,68,0,00,-18,42,-54,68,0,00,-18,42
12215,-0,78,1,37,-10,29,-0,58,1,08,-75,60,0,00,-40,60,-57,82,0,00,-21,75,-57,82,0,00,-21,75
12231,-0,78,1,37,-10,29,-0,58,1,08,-75,60,0,00,-40,60,-60,48,0,00,-24,57,-60,48,0,00,-24,57
12247,-0,78,1,37,-10,29,-0,58,1,08,-75,60,0,00,-40,60,-62,75,0,00,-26,98,-62,75,0,00,-26,98
12263,-0,20,1,67,-10,09,0,00,1,38,-96,60,0,00,0,00,-67,83,0,00,-22,93,-67,83,0,00,-22,93
12280,-0,20,1,67,-10,09,0,00,1,38,-96,60,0,00,0,00,-72,14,0,00,-19,49,-72,14,0,00,-19,49
12297,-0,20,1,67,-10,09,0,00,1,38,-96,60,0,00,0,00,-75,81,0,00,-16,57,-75,81,0,00,-16,57
12314,-0,20,1,67,-10,09,0,00,1,38,-96,60,0,00,0,00,-78,93,0,00,-14,08,-78,93,0,00,-14,08
12330,-0,29,1,67,-10,09,-0,09,1,38,-96,60,0,00,-6,30,-81,58,0,00,-12,92,-81,58,0,00,-12,92
12346,-0,29,1,67,-10,09,-0,09,1,38,-96,60,0,00,-6,30,-83,83,0,00,-11,92,-83,83,0,00,-11,92
12363,-0,29,1,67,-10,09,-0,09,1,38,-96,60,0,00,-6,30,-85,75,0,00,-11,08,-85,75,0,00,-11,08
12380,-0,88,1,37,-10,09,-0,68,1,08,-75,60,0,00,-47,60,-84,23,0,00,-16,56,-84,23,0,00,-16,56
12398,-0,88,1,37,-10,09,-0,68,1,08,-75,60,0,00,-47,60,-82,93,0,00,-21,21,-82,93,0,00,-21,21
12418,-0,78,1,37,-10,09,-0,58,1,08,-75,60,0,00,-40,60,-81,83,0,00,-24,12,-81,83,0,00,-24,12
12437,-0,78,1,37,-10,09,-0,58,1,08,-75,60,0,00,-40,60,-80,90,0,00,-26,59,-80,90,0,00,-26,59
12456,-0,78,1,37,-10,09,-0,58,1,08,-75,60,0,00,-40,60,-80,10,0,00,-28,69,-80,10,0,00,-28,69
12475,-0,29,1,37,-10,09,-0,09,1,08,-75,60,0,00,-6,30,-79,43,0,00,-25,34,-79,43,0,00,-25,34
12496,-0,29,1,37,-10,09,-0,09,1,08,-75,60,0,00,-6,30,-78,85,0,00,-22,48,-78,85,0,00,-22,48
12516,-0,49,1,37,-10,09,-0,29,1,08,-75,60,0,00,-20,30,-78,37,0,00,-22,15,-78,37,0,00,-22,15
12532,-0,49,1,37,-10,09,-0,29,1,08,-75,60,0,00,-20,30,-77,95,0,00,-21,88,-77,95,0,00,-21,88
12550,-0,49,1,37,-10,09,-0,29,1,08,-75,60,0,00,-20,30,-77,60,0,00,-21,64,-77,60,0,00,-21,64
12567,-0,49,1,18,-10,09,-0,29,0,89,-62,30,0,00,-20,30,-75,30,0,00,-21,44,-75,30,0,00,-21,44
12583,-0,49,1,18,-10,09,-0,29,0,89,-62,30,0,00,-20,30,-73,35,0,00,-21,27,-73,35,0,00,-21,27
12600,-0,49,1,18,-10,09,-0,29,0,89,-62,30,0,00,-20,30,-71,69,0,00,-21,12,-71,69,0,00,-21,12
12616,-0,49,1,08,-10,58,-0,29,0,79,-55,30,0,00,-20,30,-69,24,0,00,-21,00,-69,24,0,00,-21,00
12632,0,20,1,08,-10,58,0,40,0,79,-55,30,0,00,28,00,-67,15,0,00,-13,65,-67,15,0,00,-13,65
12648,0,20,1,08,-10,58,0,40,0,79,-55,30,0,00,28,00,-65,37,0,00,-7,40,-65,37,0,00,-7,40
12664,0,20,1,08,-10,58,0,40,0,79,-55,30,0,00,28,00,-63,86,0,00,-2,09,-63,86,0,00,-2,09
12681,-0,49,0,78,-10,00,-0,29,0,49,-34,30,0,00,-20,30,-59,42,0,00,-4,82,-59,42,0,00,-4,82
12697,-0,49,0,78,-10,00,-0,29,0,49,-34,30,0,00,-20,30,-55,66,0,00,-7,14,-55,66,0,00,-7,14
12713,-0,49,0,78,-10,00,-0,29,0,49,-34,30,0,00,-20,30,-52,45,0,00,-9,12,-52,45,0,00,-9,12
12729,-0,49,0,78,-10,00,-0,29,0,49,-34,30,0,00,-20,30,-49,73,0,00,-10,80,-49,73,0,00,-10,80
12746,-0,49,0,78,-10,00,-0,29,0,49,-34,30,0,00,-20,30,-47,42,0,00,-12,22,-47,42,0,00,-12,22
12764,-0,49,0,39,-10,09,-0,29,0,10,-7,00,0,00,-20,30,-41,35,0,00,-13,43,-41,35,0,00,-13,43
12780,-0,29,0,39,-10,09,-0,09,0,10,-7,00,0,00,-6,30,-36,20,0,00,-12,36,-36,20,0,00,-12,36
12796,-0,29,0,69,-10,09,-0,09,0,40,-28,00,0,00,-6,30,-34,97,0,00,-11,45,-34,97,0,00,-11,45
12813,-0,29,0,69,-10,09,-0,09,0,40,-28,00,0,00,-6,30,-33,92,0,00,-10,68,-33,92,0,00,-10,68
12829,-0,20,0,49,-10,19,0,00,0,20,-14,00,0,00,0,00,-30,94,0,00,-9,08,-30,94,0,00,-9,08
12847,-0,20,0,49,-10,19,0,00,0,20,-14,00,0,00,0,00,-28,40,0,00,-7,72,-28,40,0,00,-7,72
12863,-0,20,0,49,-10,19,0,00,0,20,-14,00,0,00,0,00,-26,24,0,00,-6,56,-26,24,0,00,-6,56
12879,-0,20,0,49,-8,72,0,00,0,20,-14,00,0,00,0,00,-24,40,0,00,-5,58,-24,40,0,00,-5,58
12896,0,88,-0,59,-8,72,1,08,-0,88,61,60,0,00,75,60,-11,50,0,00,6,60,-11,50,0,00,6,60
12913,0,88,-0,59,-10,09,1,08,-0,88,61,60,0,00,75,60,-0,54,0,00,16,95,-0,54,0,00,16,95
12934,-0,20,0,39,-10,09,0,00,0,10,-7,00,0,00,0,00,-1,51,0,00,14,41,-1,51,0,00,14,41
12950,-0,20,0,39,-10,09,0,00,0,10,-7,00,0,00,0,00,-2,33,0,00,12,25,-2,33,0,00,12,25
12966,-0,20,0,39,-10,09,0,00,0,10,-7,00,0,00,0,00,-3,03,0,00,10,41,-3,03,0,00,10,41
12982,-0,29,0,20,-10,09,-0,09,-0,09,6,30,0,00,-6,30,-1,63,0,00,7,90,-1,63,0,00,7,90
12998,-0,29,0,20,-10,09,-0,09,-0,09,6,30,0,00,-6,30,-0,44,0,00,5,77,-0,44,0,00,5,77
13015,0,20,0,39,-10,09,0,40,0,10,-7,00,0,00,28,00,-1,42,0,00,9,11,-1,42,0,00,9,11
13031,0,20,0,39,-10,19,0,40,0,10,-7,00,0,00,28,00,-2,26,0,00,11,94,-2,26,0,00,11,94
13047,-0,20,0,29,-10,19,0,00,0,00,-0,00,0,00,0,00,-1,92,0,00,10,15,-1,92,0,00,10,15
13063,-0,20,0,29,-10,19,0,00,0,00,-0,00,0,00,0,00,-1,63,0,00,8,63,-1,63,0,00,8,63
13079,-0,20,0,29,-10,19,0,00,0,00,-0,00,0,00,0,00,-1,39,0,00,7,33,-1,39,0,00,7,33
13098,-0,20,0,39,-10,09,0,00,0,10,-7,00,0,00,0,00,-2,23,0,00,6,23,-2,23,0,00,6,23
13114,-0,20,0,39,-10,09,0,00,0,10,-7,00,0,00,0,00,-2,95,0,00,5,30,-2,95,0,00,5,30
13130,-0,20,0,39,-10,09,0,00,0,10,-7,00,0,00,0,00,-3,55,0,00,4,50,-3,55,0,00,4,50
13147,-0,20,0,39,-10,09,0,00,0,10,-7,00,0,00,0,00,-4,07,0,00,3,83,-4,07,0,00,3,83
13163,-0,20,0,39,-10,09,0,00,0,10,-7,00,0,00,0,00,-4,51,0,00,3,25,-4,51,0,00,3,25
13181,-0,20,0,39,-10,19,0,00,0,10,-7,00,0,00,0,00,-4,88,0,00,2,77,-4,88,0,00,2,77
13197,0,00,0,29,-10,19,0,20,0,00,-0,00,0,00,14,00,-4,15,0,00,4,45,-4,15,0,00,4,45
13213,0,00,0,29,-10,09,0,20,0,00,-0,00,0,00,14,00,-3,53,0,00,5,88,-3,53,0,00,5,88
13229,-0,29,0,20,-10,09,-0,09,-0,09,6,30,0,00,-6,30,-2,05,0,00,4,06,-2,05,0,00,4,06
13246,-0,29,0,20,-10,09,-0,09,-0,09,6,30,0,00,-6,30,-0,80,0,00,2,50,-0,80,0,00,2,50
13263,-0,29,0,20,-10,09,-0,09,-0,09,6,30,0,00,-6,30,0,26,0,00,1,18,0,26,0,00,1,18
13279,-0,29,0,20,-10,09,-0,09,-0,09,6,30,0,00,-6,30,1,17,0,00,0,06,1,17,0,00,0,06
13296,-0,29,0,20,-10,09,-0,09,-0,09,6,30,0,00,-6,30,1,94,0,00,-0,89,1,94,0,00,-0,89
13313,-0,20,0,29,-10,19,0,00,0,00,-0,00,0,00,0,00,1,65,0,00,-0,76,1,65,0,00,-0,76
13329,-0,20,0,29,-10,09,0,00,0,00,-0,00,0,00,0,00,1,40,0,00,-0,65,1,40,0,00,-0,65
13348,0,20,0,39,-10,09,0,40,0,10,-7,00,0,00,28,00,0,14,0,00,3,65,0,14,0,00,3,65
13364,0,20,0,39,-10,09,0,40,0,10,-7,00,0,00,28,00,-0,93,0,00,7,30,-0,93,0,00,7,30
13380,0,20,0,39,-10,09,0,40,0,10,-7,00,0,00,28,00,-1,84,0,00,10,41,-1,84,0,00,10,41
13397,0,20,0,49,-9,90,0,40,0,20,-14,00,0,00,28,00,-3,66,0,00,13,05,-3,66,0,00,13,05
13413,0,49,0,49,-9,90,0,69,0,20,-14,00,0,00,48,30,-5,21,0,00,18,33,-5,21,0,00,18,33
13431,0,00,0,29,-10,00,0,20,0,00,-0,00,0,00,14,00,-4,43,0,00,17,68,-4,43,0,00,17,68
13447,0,00,0,29,-10,00,0,20,0,00,-0,00,0,00,14,00,-3,77,0,00,17,13,-3,77,0,00,17,13
13463,0,00,0,29,-10,00,0,20,0,00,-0,00,0,00,14,00,-3,20,0,00,16,66,-3,20,0,00,16,66
13479,0,00,0,29,-10,09,0,20,0,00,-0,00,0,00,14,00,-2,72,0,00,16,26,-2,72,0,00,16,26
13496,-0,29,0,39,-10,09,-0,09,0,10,-7,00,0,00,-6,30,-3,36,0,00,12,88,-3,36,0,00,12,88
13513,-0,29,0,59,-11,27,-0,09,0,30,-21,00,0,00,-6,30,-6,01,0,00,10,00,-6,01,0,00,10,00
13533,0,49,0,59,-11,27,0,69,0,30,-21,00,0,00,48,30,-8,26,0,00,15,75,-8,26,0,00,15,75
13549,-0,29,0,49,-9,70,-0,09,0,20,-14,00,0,00,-6,30,-9,12,0,00,12,44,-9,12,0,00,12,44
13571,-0,29,0,49,-9,70,-0,09,0,20,-14,00,0,00,-6,30,-9,85,0,00,9,63,-9,85,0,00,9,63
13587,-0,29,0,49,-9,70,-0,09,0,20,-14,00,0,00,-6,30,-10,47,0,00,7,24,-10,47,0,00,7,24
13602,-0,29,0,49,-9,90,-0,09,0,20,-14,00,0,00,-6,30,-11,00,0,00,5,21,-11,00,0,00,5,21
13618,0,20,0,88,-9,90,0,40,0,59,-41,30,0,00,28,00,-15,55,0,00,8,63,-15,55,0,00,8,63
13633,0,20,1,18,-10,29,0,40,0,89,-62,30,0,00,28,00,-22,56,0,00,11,53,-22,56,0,00,11,53
13649,0,29,1,18,-10,29,0,49,0,89,-62,30,0,00,34,30,-28,52,0,00,14,95,-28,52,0,00,14,95
13665,0,29,1,18,-10,29,0,49,0,89,-62,30,0,00,34,30,-33,59,0,00,17,85,-33,59,0,00,17,85
13682,0,29,1,18,-10,29,0,49,0,89,-62,30,0,00,34,30,-37,89,0,00,20,32,-37,89,0,00,20,32
13699,0,20,1,08,-10,00,0,40,0,79,-55,30,0,00,28,00,-40,51,0,00,21,47,-40,51,0,00,21,47
13715,0,20,1,08,-10,00,0,40,0,79,-55,30,0,00,28,00,-42,72,0,00,22,45,-42,72,0,00,22,45
13731,-0,59,1,18,-9,90,-0,39,0,89,-62,30,0,00,-27,30,-45,66,0,00,14,99,-45,66,0,00,14,99
13747,-0,59,1,18,-9,90,-0,39,0,89,-62,30,0,00,-27,30,-48,16,0,00,8,64,-48,16,0,00,8,64
13763,-0,59,1,18,-9,90,-0,39,0,89,-62,30,0,00,-27,30,-50,28,0,00,3,25,-50,28,0,00,3,25
13780,-0,59,1,18,-9,90,-0,39,0,89,-62,30,0,00,-27,30,-52,08,0,00,-1,33,-52,08,0,00,-1,33
13797,-0,59,1,18,-9,90,-0,39,0,89,-62,30,0,00,-27,30,-53,61,0,00,-5,23,-53,61,0,00,-5,23
13813,-0,59,0,98,-10,09,-0,39,0,69,-48,30,0,00,-27,30,-52,82,0,00,-8,54,-52,82,0,00,-8,54
13830,-0,59,1,18,-10,09,-0,39,0,89,-62,30,0,00,-27,30,-54,24,0,00,-11,35,-54,24,0,00,-11,35
13852,-0,29,1,47,-10,19,-0,09,1,18,-82,60,0,00,-6,30,-58,49,0,00,-10,59,-58,49,0,00,-10,59
13868,-0,29,1,47,-10,19,-0,09,1,18,-82,60,0,00,-6,30,-62,11,0,00,-9,95,-62,11,0,00,-9,95
13891,-0,29,1,47,-10,19,-0,09,1,18,-82,60,0,00,-6,30,-65,18,0,00,-9,40,-65,18,0,00,-9,40
13907,-0,29,1,76,-10,00,-0,09,1,47,-102,90,0,00,-6,30,-70,84,0,00,-8,94,-70,84,0,00,-8,94
13924,-0,20,1,76,-10,00,0,00,1,47,-102,90,0,00,0,00,-75,65,0,00,-7,60,-75,65,0,00,-7,60
13940,0,00,1,67,-9,90,0,20,1,38,-96,60,0,00,14,00,-78,79,0,00,-4,36,-78,79,0,00,-4,36
13955,0,00,1,67,-9,90,0,20,1,38,-96,60,0,00,14,00,-81,46,0,00,-1,60,-81,46,0,00,-1,60
13972,0,00,1,67,-9,90,0,20,1,38,-96,60,0,00,14,00,-83,73,0,00,0,74,-83,73,0,00,0,74
13988,0,00,1,67,-10,00,0,20,1,38,-96,60,0,00,14,00,-85,66,0,00,2,73,-85,66,0,00,2,73
14005,-0,20,1,76,-10,00,0,00,1,47,-102,90,0,00,0,00,-88,25,0,00,2,32,-88,25,0,00,2,32
14023,-0,20,1,76,-10,09,0,00,1,47,-102,90,0,00,0,00,-90,45,0,00,1,97,-90,00,0,00,1,97
14039,-0,20,2,16,-10,09,0,00,1,87,-130,90,0,00,0,00,-96,51,0,00,1,67,-90,00,0,00,1,67
14055,-0,20,2,06,-9,90,0,00,1,77,-123,90,0,00,0,00,-100,62,0,00,1,42,-90,00,0,00,1,42
14071,0,00,2,06,-9,90,0,20,1,77,-123,90,0,00,14,00,-104,11,0,00,3,31,-90,00,0,00,3,31
14089,0,00,2,06,-9,90,0,20,1,77,-123,90,0,00,14,00,-107,08,0,00,4,91,-90,00,0,00,4,91
14105,0,00,2,06,-9,90,0,20,1,77,-123,90,0,00,14,00,-109,60,0,00,6,28,-90,00,0,00,6,28
14121,-0,29,1,96,-10,00,-0,09,1,67,-116,90,0,00,-6,30,-110,70,0,00,4,39,-90,00,0,00,4,39
14136,-0,29,1,96,-10,00,-0,09,1,67,-116,90,0,00,-6,30,-111,63,0,00,2,79,-90,00,0,00,2,79
14153,-0,29,2,06,-9,90,-0,09,1,77,-123,90,0,00,-6,30,-113,47,0,00,1,42,-90,00,0,00,1,42
14169,-0,29,2,06,-9,90,-0,09,1,77,-123,90,0,00,-6,30,-115,03,0,00,0,26,-90,00,0,00,0,26
14184,-0,29,2,06,-9,90,-0,09,1,77,-123,90,0,00,-6,30,-116,36,0,00,-0,72,-90,00,0,00,-0,72
14200,-0,29,2,06,-9,90,-0,09,1,77,-123,90,0,00,-6,30,-117,49,0,00,-1,56,-90,00,0,00,-1,56
14216,-0,20,2,06,-9,90,0,00,1,77,-123,90,0,00,0,00,-118,46,0,00,-1,32,-90,00,0,00,-1,32
14231,-0,20,2,06,-9,80,0,00,1,77,-123,90,0,00,0,00,-119,27,0,00,-1,12,-90,00,0,00,-1,12
14247,-0,29,1,96,-9,80,-0,09,1,67,-116,90,0,00,-6,30,-118,92,0,00,-1,90,-90,00,0,00,-1,90
14263,-0,29,1,86,-9,90,-0,09,1,57,-109,90,0,00,-6,30,-117,56,0,00,-2,56,-90,00,0,00,-2,56
14279,-0,29,1,86,-9,90,-0,09,1,57,-109,90,0,00,-6,30,-116,41,0,00,-3,12,-90,00,0,00,-3,12
14296,-0,29,2,06,-10,19,-0,09,1,77,-123,90,0,00,-6,30,-117,54,0,00,-3,60,-90,00,0,00,-3,60
14313,-0,49,2,06,-10,19,-0,29,1,77,-123,90,0,00,-20,30,-118,49,0,00,-6,10,-90,00,0,00,-6,10
14331,-0,29,1,96,-10,00,-0,09,1,67,-116,90,0,00,-6,30,-118,25,0,00,-6,13,-90,00,0,00,-6,13
14347,-0,29,1,96,-10,00,-0,09,1,67,-116,90,0,00,-6,30,-118,05,0,00,-6,16,-90,00,0,00,-6,16
14363,-0,20,2,06,-9,90,0,00,1,77,-123,90,0,00,0,00,-118,93,0,00,-5,23,-90,00,0,00,-5,23
14379,-0,20,2,06,-9,90,0,00,1,77,-123,90,0,00,0,00,-119,67,0,00,-4,45,-90,00,0,00,-4,45
14396,-0,20,2,06,-9,90,0,00,1,77,-123,90,0,00,0,00,-120,31,0,00,-3,78,-90,00,0,00,-3,78
14414,-0,20,1,96,-10,00,0,00,1,67,-116,90,0,00,0,00,-119,80,0,00,-3,21,-90,00,0,00,-3,21
14430,-0,29,1,96,-10,00,-0,09,1,67,-116,90,0,00,-6,30,-119,36,0,00,-3,68,-90,00,0,00,-3,68
14446,-0,29,1,76,-10,00,-0,09,1,47,-102,90,0,00,-6,30,-116,89,0,00,-4,07,-90,00,0,00,-4,07
14462,-0,49,1,76,-10,00,-0,29,1,47,-102,90,0,00,-20,30,-114,79,0,00,-6,51,-90,00,0,00,-6,51
14478,-0,49,1,76,-10,00,-0,29,1,47,-102,90,0,00,-20,30,-113,01,0,00,-8,57,-90,00,0,00,-8,57
14494,-0,49,1,76,-10,00,-0,29,1,47,-102,90,0,00,-20,30,-111,49,0,00,-10,33,-90,00,0,00,-10,33
14510,-0,20,1,67,-9,90,0,00,1,38,-96,60,0,00,0,00,-109,26,0,00,-8,78,-90,00,0,00,-8,78
14526,-0,20,1,67,-9,90,0,00,1,38,-96,60,0,00,0,00,-107,36,0,00,-7,47,-90,00,0,00,-7,47
14542,-0,49,1,57,-10,00,-0,29,1,28,-89,60,0,00,-20,30,-104,70,0,00,-9,39,-90,00,0,00,-9,39
14558,-0,49,1,57,-9,70,-0,29,1,28,-89,60,0,00,-20,30,-102,43,0,00,-11,03,-90,00,0,00,-11,03
14575,-0,59,0,88,-9,70,-0,39,0,59,-41,30,0,00,-27,30,-93,26,0,00,-13,47,-90,00,0,00,-13,47
14596,-0,59,0,88,-9,70,-0,39,0,59,-41,30,0,00,-27,30,-85,47,0,00,-15,54,-85,47,0,00,-15,54
14612,-0,59,0,88,-9,70,-0,39,0,59,-41,30,0,00,-27,30,-78,84,0,00,-17,31,-78,84,0,00,-17,31
14629,-1,86,0,69,-9,90,-1,66,0,40,-28,00,0,00,-116,20,-71,22,0,00,-32,14,-71,22,0,00,-32,14
14646,-1,86,0,69,-9,90,-1,66,0,40,-28,00,0,00,-116,20,-64,73,0,00,-44,75,-64,73,0,00,-44,75
14664,-0,20,1,08,-10,00,0,00,0,79,-55,30,0,00,0,00,-63,32,0,00,-38,04,-63,32,0,00,-38,04
14685,-0,20,1,08,-10,00,0,00,0,79,-55,30,0,00,0,00,-62,12,0,00,-32,33,-62,12,0,00,-32,33
14701,-0,20,1,08,-10,00,0,00,0,79,-55,30,0,00,0,00,-61,09,0,00,-27,48,-61,09,0,00,-27,48
14717,-0,20,0,69,-10,09,0,00,0,40,-28,00,0,00,0,00,-56,13,0,00,-23,36,-56,13,0,00,-23,36
14733,-0,29,0,69,-10,09,-0,09,0,40,-28,00,0,00,-6,30,-51,91,0,00,-20,80,-51,91,0,00,-20,80
14750,-0,29,0,59,-10,00,-0,09,0,30,-21,00,0,00,-6,30,-47,27,0,00,-18,63,-47,27,0,00,-18,63
14766,-0,29,0,59,-10,00,-0,09,0,30,-21,00,0,00,-6,30,-43,33,0,00,-16,78,-43,33,0,00,-16,78
14782,-0,20,0,69,-10,09,0,00,0,40,-28,00,0,00,0,00,-41,03,0,00,-14,26,-41,03,0,00,-14,26
14799,-0,20,0,69,-10,09,0,00,0,40,-28,00,0,00,0,00,-39,08,0,00,-12,12,-39,08,0,00,-12,12
14815,-0,20,0,69,-10,09,0,00,0,40,-28,00,0,00,0,00,-37,42,0,00,-10,30,-37,42,0,00,-10,30
14831,-0,20,0,69,-10,19,0,00,0,40,-28,00,0,00,0,00,-36,00,0,00,-8,76,-36,00,0,00,-8,76
14847,-0,20,0,49,-10,19,0,00,0,20,-14,00,0,00,0,00,-32,70,0,00,-7,44,-32,70,0,00,-7,44
14863,-0,20,0,49,-10,19,0,00,0,20,-14,00,0,00,0,00,-29,90,0,00,-6,33,-29,90,0,00,-6,33
14879,-0,20,0,49,-10,19,0,00,0,20,-14,00,0,00,0,00,-27,51,0,00,-5,38,-27,51,0,00,-5,38
14896,-0,20,0,49,-10,19,0,00,0,20,-14,00,0,00,0,00,-25,49,0,00,-4,57,-25,49,0,00,-4,57
14912,-0,20,0,49,-10,19,0,00,0,20,-14,00,0,00,0,00,-23,76,0,00,-3,89,-23,76,0,00,-3,89
14931,-0,20,0,39,-10,09,0,00,0,10,-7,00,0,00,0,00,-21,25,0,00,-3,30,-21,25,0,00,-3,30
14947,-0,20,0,39,-10,09,0,00,0,10,-7,00,0,00,0,00,-19,11,0,00,-2,81,-19,11,0,00,-2,81
14962,0,29,0,29,-10,19,0,49,0,00,-0,00,0,00,34,30,-16,24,0,00,2,76,-16,24,0,00,2,76
14979,0,29,0,29,-10,19,0,49,0,00,-0,00,0,00,34,30,-13,81,0,00,7,49,-13,81,0,00,7,49
14996,0,29,0,29,-10,19,0,49,0,00,-0,00,0,00,34,30,-11,74,0,00,11,51,-11,74,0,00,11,51
15014,0,29,0,29,-10,19,0,49,0,00,-0,00,0,00,34,30,-9,98,0,00,14,93,-9,98,0,00,14,93
15030,0,29,0,29,-10,19,0,49,0,00,-0,00,0,00,34,30,-8,48,0,00,17,84,-8,48,0,00,17,84
15046,0,29,0,29,-10,19,0,49,0,00,-0,00,0,00,34,30,-7,21,0,00,20,30,-7,21,0,00,20,30
15062,0,20,0,29,-10,19,0,40,0,00,-0,00,0,00,28,00,-6,13,0,00,21,46,-6,13,0,00,21,46
15079,-0,29,0,10,-10,19,-0,09,-0,19,13,30,0,00,-6,30,-3,21,0,00,17,30,-3,21,0,00,17,30
15097,-0,29,0,10,-10,19,-0,09,-0,19,13,30,0,00,-6,30,-0,74,0,00,13,76,-0,74,0,00,13,76
15116,-0,29,0,10,-10,19,-0,09,-0,19,13,30,0,00,-6,30,1,37,0,00,10,75,1,37,0,00,10,75
15133,-0,29,0,59,-10,00,-0,09,0,30,-21,00,0,00,-6,30,-1,99,0,00,8,19,-1,99,0,00,8,19
15150,-0,49,0,59,-10,00,-0,29,0,30,-21,00,0,00,-20,30,-4,84,0,00,3,92,-4,84,0,00,3,92
15166,-0,49,0,39,-10,09,-0,29,0,10,-7,00,0,00,-20,30,-5,16,0,00,0,28,-5,16,0,00,0,28
15182,-0,20,0,39,-10,09,0,00,0,10,-7,00,0,00,0,00,-5,44,0,00,0,24,-5,44,0,00,0,24
15198,-0,20,0,39,-10,09,0,00,0,10,-7,00,0,00,0,00,-5,67,0,00,0,21,-5,67,0,00,0,21
15214,-0,20,0,39,-10,09,0,00,0,10,-7,00,0,00,0,00,-5,87,0,00,0,17,-5,87,0,00,0,17
15231,-0,20,0,39,-10,09,0,00,0,10,-7,00,0,00,0,00,-6,04,0,00,0,15,-6,04,0,00,0,15
15248,-0,20,0,39,-10,09,0,00,0,10,-7,00,0,00,0,00,-6,18,0,00,0,13,-6,18,0,00,0,13
15275,-0,20,0,39,-10,09,0,00,0,10,-7,00,0,00,0,00,-6,31,0,00,0,11,-6,31,0,00,0,11
15292,-0,20,0,39,-10,09,0,00,0,10,-7,00,0,00,0,00,-6,41,0,00,0,09,-6,41,0,00,0,09
15313,-0,20,0,39,-10,09,0,00,0,10,-7,00,0,00,0,00,-6,50,0,00,0,08,-6,50,0,00,0,08
15333,-0,20,0,39,-10,09,0,00,0,10,-7,00,0,00,0,00,-6,57,0,00,0,07,-6,57,0,00,0,07
15353,-0,20,0,29,-10,19,0,00,0,00,-0,00,0,00,0,00,-5,59,0,00,0,06,-5,59,0,00,0,06
15375,-0,20,0,29,-10,19,0,00,0,00,-0,00,0,00,0,00,-4,75,0,00,0,05,-4,75,0,00,0,05
15392,0,00,0,29,-10,19,0,20,0,00,-0,00,0,00,14,00,-4,04,0,00,2,14,-4,04,0,00,2,14
15417,0,00,0,29,-10,19,0,20,0,00,-0,00,0,00,14,00,-3,43,0,00,3,92,-3,43,0,00,3,92
15433,0,00,0,29,-10,19,0,20,0,00,-0,00,0,00,14,00,-2,92,0,00,5,43,-2,92,0,00,5,43
15454,-0,20,0,29,-10,19,0,00,0,00,-0,00,0,00,0,00,-2,48,0,00,4,62,-2,48,0,00,4,62
15473,-0,20,0,39,-10,09,0,00,0,10,-7,00,0,00,0,00,-3,16,0,00,3,92,-3,16,0,00,3,92
15493,-0,20,0,29,-10,19,0,00,0,00,-0,00,0,00,0,00,-2,68,0,00,3,34,-2,68,0,00,3,34
15509,0,20,0,29,-10,19,0,40,0,00,-0,00,0,00,28,00,-2,28,0,00,7,04,-2,28,0,00,7,04
15529,-0,49,0,49,-10,19,-0,29,0,20,-14,00,0,00,-20,30,-4,04,0,00,2,93,-4,04,0,00,2,93
15546,-0,49,0,49,-10,19,-0,29,0,20,-14,00,0,00,-20,30,-5,53,0,00,-0,55,-5,53,0,00,-0,55
15577,-0,29,0,20,-10,29,-0,09,-0,09,6,30,0,00,-6,30,-3,76,0,00,-1,41,-3,76,0,00,-1,41
15594,0,20,0,49,-9,90,0,40,0,20,-14,00,0,00,28,00,-5,29,0,00,3,00,-5,29,0,00,3,00
15627,0,20,0,49,-9,90,0,40,0,20,-14,00,0,00,28,00,-6,60,0,00,6,75,-6,60,0,00,6,75
15677,0,20,0,39,-10,09,0,40,0,10,-7,00,0,00,28,00,-6,66,0,00,9,94,-6,66,0,00,9,94
15701,-0,20,0,39,-10,09,0,00,0,10,-7,00,0,00,0,00,-6,71,0,00,8,45,-6,71,0,00,8,45
15720,-0,20,0,39,-10,09,0,00,0,10,-7,00,0,00,0,00,-6,75,0,00,7,18,-6,75,0,00,7,18
15813,-0,29,0,20,-10,09,-0,09,-0,09,6,30,0,00,-6,30,-4,80,0,00,5,16,-4,80,0,00,5,16
15883,0,59,0,39,-10,09,0,79,0,10,-7,00,0,00,55,30,-5,13,0,00,12,68,-5,13,0,00,12,68
15957,0,29,0,69,-10,09,0,49,0,40,-28,00,0,00,34,30,-8,56,0,00,15,92,-8,56,0,00,15,92
16004,0,00,0,29,-10,00,0,20,0,00,-0,00,0,00,14,00,-7,27,0,00,15,63,-7,27,0,00,15,63
16033,0,00,0,29,-10,19,0,20,0,00,-0,00,0,00,14,00,-6,18,0,00,15,39,-6,18,0,00,15,39
16101,-0,20,0,29,-10,19,0,00,0,00,-0,00,0,00,0,00,-5,26,0,00,13,08,-5,26,0,00,13,08
16168,-0,20,0,29,-10,19,0,00,0,00,-0,00,0,00,0,00,-4,47,0,00,11,12,-4,47,0,00,11,12
16206,0,00,0,39,-10,09,0,20,0,10,-7,00,0,00,14,00,-4,85,0,00,11,55,-4,85,0,00,11,55
16236,0,00,0,39,-10,09,0,20,0,10,-7,00,0,00,14,00,-5,17,0,00,11,92,-5,17,0,00,11,92
16260,-0,20,0,39,-10,09,0,00,0,10,-7,00,0,00,0,00,-5,44,0,00,10,13,-5,44,0,00,10,13
16282,-0,20,0,29,-10,19,0,00,0,00,-0,00,0,00,0,00,-4,63,0,00,8,61,-4,63,0,00,8,61
16316,-0,20,0,29,-10,09,0,00,0,00,-0,00,0,00,0,00,-3,93,0,00,7,32,-3,93,0,00,7,32
16353,0,00,0,39,-10,09,0,20,0,10,-7,00,0,00,14,00,-4,39,0,00,8,32,-4,39,0,00,8,32
16371,-0,20,0,39,-10,29,0,00,0,10,-7,00,0,00,0,00,-4,78,0,00,7,07,-4,78,0,00,7,07
16387,-0,20,0,39,-10,29,0,00,0,10,-7,00,0,00,0,00,-5,12,0,00,6,01,-5,12,0,00,6,01
16403,-0,20,0,39,-10,09,0,00,0,10,-7,00,0,00,0,00,-5,40,0,00,5,11,-5,40,0,00,5,11
16418,-0,20,0,39,-10,09,0,00,0,10,-7,00,0,00,0,00,-5,64,0,00,4,34,-5,64,0,00,4,34
16435,-0,20,0,39,-10,09,0,00,0,10,-7,00,0,00,0,00,-5,84,0,00,3,69,-5,84,0,00,3,69
16451,-0,20,0,39,-10,09,0,00,0,10,-7,00,0,00,0,00,-6,02,0,00,3,14,-6,02,0,00,3,14
16466,0,00,0,39,-10,09,0,20,0,10,-7,00,0,00,14,00,-6,16,0,00,4,77,-6,16,0,00,4,77
16482,0,00,0,39,-10,09,0,20,0,10,-7,00,0,00,14,00,-6,29,0,00,6,15,-6,29,0,00,6,15
16498,0,00,0,39,-10,09,0,20,0,10,-7,00,0,00,14,00,-6,40,0,00,7,33,-6,40,0,00,7,33
16514,0,00,0,39,-10,09,0,20,0,10,-7,00,0,00,14,00,-6,49,0,00,8,33,-6,49,0,00,8,33
16530,0,00,0,39,-10,09,0,20,0,10,-7,00,0,00,14,00,-6,56,0,00,9,18,-6,56,0,00,9,18
16546,0,00,0,39,-10,09,0,20,0,10,-7,00,0,00,14,00,-6,63,0,00,9,90,-6,63,0,00,9,90
16562,0,00,0,39,-10,09,0,20,0,10,-7,00,0,00,14,00,-6,68,0,00,10,52,-6,68,0,00,10,52
16580,-0,20,0,39,-10,09,0,00,0,10,-7,00,0,00,0,00,-6,73,0,00,8,94,-6,73,0,00,8,94
16596,-0,20,0,39,-10,09,0,00,0,10,-7,00,0,00,0,00,-6,77,0,00,7,60,-6,77,0,00,7,60
16612,-0,20,0,39,-10,09,0,00,0,10,-7,00,0,00,0,00,-6,81,0,00,6,46,-6,81,0,00,6,46
16629,-0,20,0,39,-10,09,0,00,0,10,-7,00,0,00,0,00,-6,84,0,00,5,49,-6,84,0,00,5,49
16647,-0,20,0,39,-10,09,0,00,0,10,-7,00,0,00,0,00,-6,86,0,00,4,67,-6,86,0,00,4,67
16663,-0,20,0,49,-10,09,0,00,0,20,-14,00,0,00,0,00,-7,93,0,00,3,97,-7,93,0,00,3,97
16679,-0,20,0,39,-10,09,0,00,0,10,-7,00,0,00,0,00,-7,79,0,00,3,37,-7,79,0,00,3,37
16696,-0,20,0,59,-10,39,0,00,0,30,-21,00,0,00,0,00,-9,77,0,00,2,87,-9,77,0,00,2,87
16713,-0,20,0,59,-10,39,0,00,0,30,-21,00,0,00,0,00,-11,46,0,00,2,44,-11,46,0,00,2,44
16729,-0,20,0,59,-10,39,0,00,0,30,-21,00,0,00,0,00,-12,89,0,00,2,07,-12,89,0,00,2,07
16746,-0,20,0,59,-10,39,0,00,0,30,-21,00,0,00,0,00,-14,11,0,00,1,76,-14,11,0,00,1,76
16762,-0,20,0,59,-10,39,0,00,0,30,-21,00,0,00,0,00,-15,14,0,00,1,50,-15,14,0,00,1,50
16779,-0,20,0,59,-10,19,0,00,0,30,-21,00,0,00,0,00,-16,02,0,00,1,27,-16,02,0,00,1,27
16795,-0,20,0,29,-10,19,0,00,0,00,-0,00,0,00,0,00,-13,62,0,00,1,08,-13,62,0,00,1,08
16812,-0,20,0,29,-10,19,0,00,0,00,-0,00,0,00,0,00,-11,57,0,00,0,92,-11,57,0,00,0,92
16829,0,00,0,29,-10,19,0,20,0,00,-0,00,0,00,14,00,-9,84,0,00,2,88,-9,84,0,00,2,88
16847,0,00,0,29,-10,19,0,20,0,00,-0,00,0,00,14,00,-8,36,0,00,4,55,-8,36,0,00,4,55
16862,0,00,0,29,-10,19,0,20,0,00,-0,00,0,00,14,00,-7,11,0,00,5,97,-7,11,0,00,5,97
16878,0,00,0,39,-10,09,0,20,0,10,-7,00,0,00,14,00,-7,09,0,00,7,17,-7,09,0,00,7,17
16894,-0,20,0,39,-10,09,0,00,0,10,-7,00,0,00,0,00,-7,08,0,00,6,10,-7,08,0,00,6,10
16910,-0,20,0,39,-10,09,0,00,0,10,-7,00,0,00,0,00,-7,07,0,00,5,18,-7,07,0,00,5,18
16926,-0,20,0,39,-10,09,0,00,0,10,-7,00,0,00,0,00,-7,06,0,00,4,40,-7,06,0,00,4,40
16942,-0,20,0,39,-10,09,0,00,0,10,-7,00,0,00,0,00,-7,05,0,00,3,74,-7,05,0,00,3,74
16958,-0,20,0,39,-10,09,0,00,0,10,-7,00,0,00,0,00,-7,00,0,00,3,18,-7,00,0,00,3,18
16974,0,00,0,39,-10,09,0,20,0,10,-7,00,0,00,14,00,-7,00,0,00,4,80,-7,00,0,00,4,80
16990,0,00,0,39,-10,09,0,20,0,10,-7,00,0,00,14,00,-7,00,0,00,6,18,-7,00,0,00,6,18
17006,0,00,0,39,-10,09,0,20,0,10,-7,00,0,00,14,00,-7,00,0,00,7,36,-7,00,0,00,7,36
17022,0,00,0,39,-10,09,0,20,0,10,-7,00,0,00,14,00,-7,00,0,00,8,35,-7,00,0,00,8,35
17039,-0,20,0,39,-10,09,0,00,0,10,-7,00,0,00,0,00,-7,00,0,00,7,10,-7,00,0,00,7,10
17062,-0,20,0,39,-10,09,0,00,0,10,-7,00,0,00,0,00,-7,00,0,00,6,04,-7,00,0,00,6,04
17079,-0,20,0,39,-10,29,0,00,0,10,-7,00,0,00,0,00,-7,00,0,00,5,13,-7,00,0,00,5,13
17095,-0,20,0,39,-10,29,0,00,0,10,-7,00,0,00,0,00,-7,00,0,00,4,36,-7,00,0,00,4,36
17112,-0,20,0,39,-10,19,0,00,0,10,-7,00,0,00,0,00,-7,00,0,00,3,71,-7,00,0,00,3,71
17129,-0,20,0,49,-10,19,0,00,0,20,-14,00,0,00,0,00,-8,05,0,00,3,15,-8,05,0,00,3,15
17146,-0,20,0,49,-10,19,0,00,0,20,-14,00,0,00,0,00,-8,94,0,00,2,68,-8,94,0,00,2,68
17162,-0,20,0,49,-10,19,0,00,0,20,-14,00,0,00,0,00,-9,70,0,00,2,28,-9,70,0,00,2,28
17179,-0,20,0,39,-10,09,0,00,0,10,-7,00,0,00,0,00,-9,30,0,00,1,93,-9,30,0,00,1,93
17195,-0,20,0,39,-10,09,0,00,0,10,-7,00,0,00,0,00,-8,95,0,00,1,64,-8,95,0,00,1,64
17212,-0,20,0,39,-10,09,0,00,0,10,-7,00,0,00,0,00,-8,66,0,00,1,40,-8,66,0,00,1,40
17229,-0,20,0,39,-10,09,0,00,0,10,-7,00,0,00,0,00,-8,41,0,00,1,19,-8,41,0,00,1,19
17248,-0,20,0,39,-10,09,0,00,0,10,-7,00,0,00,0,00,-8,20,0,00,1,01,-8,20,0,00,1,01
17264,-0,20,0,29,-10,19,0,00,0,00,-0,00,0,00,0,00,-6,97,0,00,0,86,-6,97,0,00,0,86
17280,0,00,0,29,-10,19,0,20,0,00,-0,00,0,00,14,00,-5,92,0,00,2,83,-5,92,0,00,2,83
17295,0,00,0,29,-10,19,0,20,0,00,-0,00,0,00,14,00,-5,03,0,00,4,51,-5,03,0,00,4,51
17312,0,00,0,29,-10,19,0,20,0,00,-0,00,0,00,14,00,-4,28,0,00,5,93,-4,28,0,00,5,93
17329,-0,20,0,39,-10,09,0,00,0,10,-7,00,0,00,0,00,-4,69,0,00,5,04,-4,69,0,00,5,04
17345,-0,20,0,39,-10,09,0,00,0,10,-7,00,0,00,0,00,-5,03,0,00,4,28,-5,03,0,00,4,28
17362,-0,20,0,39,-10,09,0,00,0,10,-7,00,0,00,0,00,-5,33,0,00,3,64,-5,33,0,00,3,64
17379,-0,20,0,39,-10,09,0,00,0,10,-7,00,0,00,0,00,-5,58,0,00,3,10,-5,58,0,00,3,10
17395,-0,20,0,39,-10,09,0,00,0,10,-7,00,0,00,0,00,-5,79,0,00,2,63,-5,79,0,00,2,63
17412,-0,20,0,39,-10,09,0,00,0,10,-7,00,0,00,0,00,-5,97,0,00,2,24,-5,97,0,00,2,24
17429,-0,20,0,39,-10,09,0,00,0,10,-7,00,0,00,0,00,-6,13,0,00,1,90,-6,13,0,00,1,90
17447,-0,20,0,39,-10,09,0,00,0,10,-7,00,0,00,0,00,-6,26,0,00,1,62,-6,26,0,00,1,62
17463,-0,20,0,39,-10,09,0,00,0,10,-7,00,0,00,0,00,-6,37,0,00,1,37,-6,37,0,00,1,37
17479,-0,20,0,39,-10,09,0,00,0,10,-7,00,0,00,0,00,-6,46,0,00,1,17,-6,46,0,00,1,17
17495,-0,20,0,39,-10,09,0,00,0,10,-7,00,0,00,0,00,-6,54,0,00,0,99,-6,54,0,00,0,99
17512,0,00,0,29,-10,19,0,20,0,00,-0,00,0,00,14,00,-5,56,0,00,2,94,-5,56,0,00,2,94
17529,0,00,0,29,-10,19,0,20,0,00,-0,00,0,00,14,00,-4,73,0,00,4,60,-4,73,0,00,4,60
17546,-0,20,0,29,-10,19,0,00,0,00,-0,00,0,00,0,00,-4,02,0,00,3,91,-4,02,0,00,3,91
17562,-0,20,0,29,-10,19,0,00,0,00,-0,00,0,00,0,00,-3,42,0,00,3,32,-3,42,0,00,3,32
17582,-0,20,0,29,-10,19,0,00,0,00,-0,00,0,00,0,00,-2,90,0,00,2,83,-2,90,0,00,2,83
17598,-0,20,0,39,-10,09,0,00,0,10,-7,00,0,00,0,00,-3,52,0,00,2,40,-3,52,0,00,2,40
17615,-0,20,0,39,-10,09,0,00,0,10,-7,00,0,00,0,00,-4,04,0,00,2,04,-4,04,0,00,2,04
17631,-0,20,0,39,-10,09,0,00,0,10,-7,00,0,00,0,00,-4,48,0,00,1,74,-4,48,0,00,1,74
17648,-0,20,0,39,-10,09,0,00,0,10,-7,00,0,00,0,00,-4,86,0,00,1,48,-4,86,0,00,1,48
17671,-0,20,0,39,-10,09,0,00,0,10,-7,00,0,00,0,00,-5,18,0,00,1,25,-5,18,0,00,1,25
17695,-0,20,0,39,-10,09,0,00,0,10,-7,00,0,00,0,00,-5,46,0,00,1,07,-5,46,0,00,1,07
17715,-0,20,0,29,-10,19,0,00,0,00,-0,00,0,00,0,00,-4,64,0,00,0,91,-4,64,0,00,0,91
17732,0,00,0,29,-10,19,0,20,0,00,-0,00,0,00,14,00,-3,94,0,00,2,87,-3,94,0,00,2,87
17750,0,00,0,39,-10,09,0,20,0,10,-7,00,0,00,14,00,-4,40,0,00,4,54,-4,40,0,00,4,54
17766,0,00,0,39,-10,09,0,20,0,10,-7,00,0,00,14,00,-4,79,0,00,5,96,-4,79,0,00,5,96
17782,0,00,0,39,-10,09,0,20,0,10,-7,00,0,00,14,00,-5,12,0,00,7,16,-5,12,0,00,7,16
17798,0,00,0,39,-10,49,0,20,0,10,-7,00,0,00,14,00,-5,40,0,00,8,19,-5,40,0,00,8,19
17814,0,00,0,49,-10,19,0,20,0,20,-14,00,0,00,14,00,-6,69,0,00,9,06,-6,69,0,00,9,06
17830,0,00,0,49,-10,49,0,20,0,20,-14,00,0,00,14,00,-7,79,0,00,9,80,-7,79,0,00,9,80
17848,-0,20,0,49,-10,49,0,00,0,20,-14,00,0,00,0,00,-8,72,0,00,8,33,-8,72,0,00,8,33
17865,-0,20,0,49,-10,49,0,00,0,20,-14,00,0,00,0,00,-9,51,0,00,7,08,-9,51,0,00,7,08
17881,-0,20,0,49,-10,49,0,00,0,20,-14,00,0,00,0,00,-10,19,0,00,6,02,-10,19,0,00,6,02
17897,-0,20,0,39,-10,09,0,00,0,10,-7,00,0,00,0,00,-9,71,0,00,5,12,-9,71,0,00,5,12
17913,-0,20,0,39,-10,09,0,00,0,10,-7,00,0,00,0,00,-9,30,0,00,4,35,-9,30,0,00,4,35
17929,0,00,0,29,-10,19,0,20,0,00,-0,00,0,00,14,00,-7,91,0,00,5,80,-7,91,0,00,5,80
17945,0,00,0,29,-10,19,0,20,0,00,-0,00,0,00,14,00,-6,72,0,00,7,03,-6,72,0,00,7,03
17962,0,00,0,59,-10,39,0,20,0,30,-21,00,0,00,14,00,-8,86,0,00,8,07,-8,86,0,00,8,07
17979,0,00,0,59,-10,39,0,20,0,30,-21,00,0,00,14,00,-10,68,0,00,8,96,-10,68,0,00,8,96
17995,0,00,0,59,-10,39,0,20,0,30,-21,00,0,00,14,00,-12,23,0,00,9,72,-12,23,0,00,9,72
18012,0,00,0,59,-10,09,0,20,0,30,-21,00,0,00,14,00,-13,55,0,00,10,36,-13,55,0,00,10,36
18029,-0,20,0,20,-10,09,0,00,-0,09,6,30,0,00,0,00,-10,57,0,00,8,81,-10,57,0,00,8,81
18048,0,88,1,18,-10,68,1,08,0,89,-62,30,0,00,75,60,-18,33,0,00,18,83,-18,33,0,00,18,83
18064,0,88,1,18,-10,68,1,08,0,89,-62,30,0,00,75,60,-24,92,0,00,27,34,-24,92,0,00,27,34
18080,0,88,1,18,-10,68,1,08,0,89,-62,30,0,00,75,60,-30,53,0,00,34,58,-30,53,0,00,34,58
18097,0,88,1,18,-10,68,1,08,0,89,-62,30,0,00,75,60,-35,30,0,00,40,73,-35,30,0,00,40,73
18116,-0,29,0,10,-10,00,-0,09,-0,19,13,30,0,00,-6,30,-28,01,0,00,33,68,-28,01,0,00,33,68
18132,-0,29,0,10,-9,60,-0,09,-0,19,13,30,0,00,-6,30,-21,81,0,00,27,68,-21,81,0,00,27,68
18149,-0,59,-0,20,-9,60,-0,39,-0,49,34,30,0,00,-27,30,-13,39,0,00,19,43,-13,39,0,00,19,43
18164,-0,59,-0,20,-9,60,-0,39,-0,49,34,30,0,00,-27,30,-6,24,0,00,12,42,-6,24,0,00,12,42
18180,-0,59,-0,20,-9,60,-0,39,-0,49,34,30,0,00,-27,30,-0,16,0,00,6,47,-0,16,0,00,6,47
18197,-0,20,1,27,-10,39,0,00,0,98,-68,60,0,00,0,00,-10,43,0,00,5,50,-10,43,0,00,5,50
18213,0,20,1,27,-10,39,0,40,0,98,-68,60,0,00,28,00,-19,15,0,00,8,87,-19,15,0,00,8,87
18228,1,57,1,47,-10,68,1,77,1,18,-82,60,0,00,123,90,-28,67,0,00,26,13,-28,67,0,00,26,13
18245,1,57,1,47,-10,68,1,77,1,18,-82,60,0,00,123,90,-36,76,0,00,40,79,-36,76,0,00,40,79
18262,0,59,0,88,-9,90,0,79,0,59,-41,30,0,00,55,30,-37,44,0,00,42,97,-37,44,0,00,42,97
18278,0,59,0,88,-9,90,0,79,0,59,-41,30,0,00,55,30,-38,02,0,00,44,82,-38,02,0,00,44,82
18297,0,59,0,88,-9,90,0,79,0,59,-41,30,0,00,55,30,-38,51,0,00,46,39,-38,51,0,00,46,39
18318,0,59,1,76,-9,80,0,79,1,47,-102,90,0,00,55,30,-48,17,0,00,47,73,-48,17,0,00,47,73
18340,0,00,1,76,-10,29,0,20,1,47,-102,90,0,00,14,00,-56,38,0,00,42,67,-56,38,0,00,42,67
18361,1,96,2,16,-10,29,2,16,1,87,-130,90,0,00,151,20,-67,56,0,00,58,95,-67,56,0,00,58,95
18377,1,96,2,16,-10,29,2,16,1,87,-130,90,0,00,151,20,-77,06,0,00,72,79,-77,06,0,00,72,79
18395,1,96,2,16,-10,29,2,16,1,87,-130,90,0,00,151,20,-85,13,0,00,84,55,-85,13,0,00,84,55
18412,0,88,1,86,-9,90,1,08,1,57,-109,90,0,00,75,60,-88,85,0,00,83,21,-88,85,0,00,83,21
18429,0,88,1,86,-9,90,1,08,1,57,-109,90,0,00,75,60,-92,01,0,00,82,06,-90,00,0,00,82,06
18445,1,27,2,06,-9,90,1,47,1,77,-123,90,0,00,102,90,-96,79,0,00,85,19,-90,00,0,00,85,19
18464,1,27,2,16,-10,09,1,47,1,87,-130,90,0,00,102,90,-101,91,0,00,87,85,-90,00,0,00,87,85
18481,1,37,2,16,-10,09,1,57,1,87,-130,90,0,00,109,90,-106,26,0,00,91,15,-90,00,0,00,90,00
18497,1,27,2,06,-9,90,1,47,1,77,-123,90,0,00,102,90,-108,90,0,00,92,92,-90,00,0,00,90,00
18526,1,27,1,96,-10,00,1,47,1,67,-116,90,0,00,102,90,-110,10,0,00,94,41,-90,00,0,00,90,00
18542,1,37,1,96,-10,00,1,57,1,67,-116,90,0,00,109,90,-111,12,0,00,96,74,-90,00,0,00,90,00
18558,1,27,1,86,-9,90,1,47,1,57,-109,90,0,00,102,90,-110,94,0,00,97,66,-90,00,0,00,90,00
18574,1,27,1,86,-9,90,1,47,1,57,-109,90,0,00,102,90,-110,78,0,00,98,45,-90,00,0,00,90,00
18590,1,27,1,86,-9,90,1,47,1,57,-109,90,0,00,102,90,-110,65,0,00,99,12,-90,00,0,00,90,00
18606,1,27,1,86,-9,90,1,47,1,57,-109,90,0,00,102,90,-110,54,0,00,99,68,-90,00,0,00,90,00
18622,1,08,1,76,-10,00,1,28,1,47,-102,90,0,00,89,60,-109,39,0,00,98,17,-90,00,0,00,90,00
18655,0,88,1,57,-10,00,1,08,1,28,-89,60,0,00,75,60,-106,42,0,00,94,78,-90,00,0,00,90,00
18687,0,88,1,57,-10,00,1,08,1,28,-89,60,0,00,75,60,-103,90,0,00,91,91,-90,00,0,00,90,00
18718,0,78,1,57,-10,00,0,98,1,28,-89,60,0,00,68,60,-101,75,0,00,88,41,-90,00,0,00,88,41
18734,0,78,1,27,-10,00,0,98,0,98,-68,60,0,00,68,60,-96,78,0,00,85,44,-90,00,0,00,85,44
18751,0,78,1,27,-10,00,0,98,0,98,-68,60,0,00,68,60,-92,55,0,00,82,91,-90,00,0,00,82,91
18767,0,78,1,18,-10,09,0,98,0,89,-62,30,0,00,68,60,-88,02,0,00,80,77,-88,02,0,00,80,77
18783,0,49,1,18,-10,09,0,69,0,89,-62,30,0,00,48,30,-84,16,0,00,75,90,-84,16,0,00,75,90
18799,0,49,1,18,-10,09,0,69,0,89,-62,30,0,00,48,30,-80,88,0,00,71,76,-80,88,0,00,71,76
18814,0,49,1,18,-10,09,0,69,0,89,-62,30,0,00,48,30,-78,09,0,00,68,24,-78,09,0,00,68,24
18831,0,20,0,78,-10,00,0,40,0,49,-34,30,0,00,28,00,-71,52,0,00,62,20,-71,52,0,00,62,20
18847,0,20,0,78,-10,00,0,40,0,49,-34,30,0,00,28,00,-65,94,0,00,57,07,-65,94,0,00,57,07
18863,0,20,0,78,-10,29,0,40,0,49,-34,30,0,00,28,00,-61,19,0,00,52,71,-61,19,0,00,52,71
18882,0,20,0,78,-10,29,0,40,0,49,-34,30,0,00,28,00,-57,16,0,00,49,00,-57,16,0,00,49,00
18901,0,20,0,78,-10,29,0,40,0,49,-34,30,0,00,28,00,-53,73,0,00,45,85,-53,73,0,00,45,85
18921,0,20,0,69,-10,09,0,40,0,40,-28,00,0,00,28,00,-49,87,0,00,43,18,-49,87,0,00,43,18
18937,0,20,0,69,-10,09,0,40,0,40,-28,00,0,00,28,00,-46,59,0,00,40,90,-46,59,0,00,40,90
18953,-0,29,-0,49,-9,31,-0,09,-0,78,54,60,0,00,-6,30,-31,41,0,00,33,82,-31,41,0,00,33,82
18969,-0,29,-0,49,-10,29,-0,09,-0,78,54,60,0,00,-6,30,-18,51,0,00,27,80,-18,51,0,00,27,80
18985,-0,59,0,20,-10,29,-0,39,-0,09,6,30,0,00,-27,30,-14,79,0,00,19,54,-14,79,0,00,19,54
19001,-0,59,0,20,-10,29,-0,39,-0,09,6,30,0,00,-27,30,-11,63,0,00,12,51,-11,63,0,00,12,51
19017,-0,49,0,39,-10,29,-0,29,0,10,-7,00,0,00,-20,30,-10,93,0,00,7,59,-10,93,0,00,7,59
19032,-0,49,0,39,-10,09,-0,29,0,10,-7,00,0,00,-20,30,-10,34,0,00,3,41,-10,34,0,00,3,41
19049,0,00,0,20,-10,09,0,20,-0,09,6,30,0,00,14,00,-7,85,0,00,5,00,-7,85,0,00,5,00
19065,0,00,0,29,-10,19,0,20,0,00,-0,00,0,00,14,00,-6,67,0,00,6,35,-6,67,0,00,6,35
19080,-0,20,0,29,-10,19,0,00,0,00,-0,00,0,00,0,00,-5,67,0,00,5,39,-5,67,0,00,5,39
19098,-0,20,0,29,-10,19,0,00,0,00,-0,00,0,00,0,00,-4,82,0,00,4,58,-4,82,0,00,4,58
19114,-0,20,0,29,-10,19,0,00,0,00,-0,00,0,00,0,00,-4,10,0,00,3,90,-4,10,0,00,3,90
19130,-0,59,0,20,-9,90,-0,39,-0,09,6,30,0,00,-27,30,-2,54,0,00,-0,78,-2,54,0,00,-0,78
19146,-0,59,0,20,-9,90,-0,39,-0,09,6,30,0,00,-27,30,-1,21,0,00,-4,76,-1,21,0,00,-4,76
19162,-0,20,0,39,-10,09,0,00,0,10,-7,00,0,00,0,00,-2,08,0,00,-4,05,-2,08,0,00,-4,05
19179,-0,20,0,39,-10,09,0,00,0,10,-7,00,0,00,0,00,-2,82,0,00,-3,44,-2,82,0,00,-3,44
19195,-0,20,0,39,-10,09,0,00,0,10,-7,00,0,00,0,00,-3,44,0,00,-2,92,-3,44,0,00,-2,92
19212,-0,20,0,39,-10,49,0,00,0,10,-7,00,0,00,0,00,-3,98,0,00,-2,48,-3,98,0,00,-2,48
19228,0,20,0,20,-10,49,0,40,-0,09,6,30,0,00,28,00,-2,44,0,00,2,09,-2,44,0,00,2,09
19245,0,20,0,39,-10,29,0,40,0,10,-7,00,0,00,28,00,-3,12,0,00,5,97,-3,12,0,00,5,97
19265,0,00,0,39,-10,29,0,20,0,10,-7,00,0,00,14,00,-3,70,0,00,7,18,-3,70,0,00,7,18
19284,-0,20,0,39,-10,09,0,00,0,10,-7,00,0,00,0,00,-4,20,0,00,6,10,-4,20,0,00,6,10
19300,-0,20,0,39,-10,09,0,00,0,10,-7,00,0,00,0,00,-4,62,0,00,5,19,-4,62,0,00,5,19
19316,-0,20,0,39,-10,09,0,00,0,10,-7,00,0,00,0,00,-4,98,0,00,4,41,-4,98,0,00,4,41
19332,-0,20,0,39,-10,00,0,00,0,10,-7,00,0,00,0,00,-5,28,0,00,3,75,-5,28,0,00,3,75
19351,0,00,0,29,-10,00,0,20,0,00,-0,00,0,00,14,00,-4,49,0,00,5,29,-4,49,0,00,5,29
19368,-0,20,0,39,-10,09,0,00,0,10,-7,00,0,00,0,00,-4,86,0,00,4,49,-4,86,0,00,4,49
19385,-0,20,0,39,-10,09,0,00,0,10,-7,00,0,00,0,00,-5,18,0,00,3,82,-5,18,0,00,3,82
19403,-0,20,0,39,-10,09,0,00,0,10,-7,00,0,00,0,00,-5,46,0,00,3,25,-5,46,0,00,3,25
19419,-0,20,0,39,-10,09,0,00,0,10,-7,00,0,00,0,00,-5,69,0,00,2,76,-5,69,0,00,2,76
19434,-0,20,0,39,-10,09,0,00,0,10,-7,00,0,00,0,00,-5,88,0,00,2,35,-5,88,0,00,2,35
19450,-0,20,0,39,-10,09,0,00,0,10,-7,00,0,00,0,00,-6,05,0,00,1,99,-6,05,0,00,1,99
19465,-0,20,0,39,-10,09,0,00,0,10,-7,00,0,00,0,00,-6,19,0,00,1,69,-6,19,0,00,1,69
19481,-0,20,0,39,-10,09,0,00,0,10,-7,00,0,00,0,00,-6,32,0,00,1,44,-6,32,0,00,1,44
19498,0,00,0,39,-10,09,0,20,0,10,-7,00,0,00,14,00,-6,42,0,00,3,32,-6,42,0,00,3,32
19514,0,00,0,39,-10,09,0,20,0,10,-7,00,0,00,14,00,-6,51,0,00,4,93,-6,51,0,00,4,93
19530,0,00,0,39,-10,09,0,20,0,10,-7,00,0,00,14,00,-6,58,0,00,6,29,-6,58,0,00,6,29
19551,0,20,0,29,-10,00,0,40,0,00,-0,00,0,00,28,00,-5,59,0,00,9,54,-5,59,0,00,9,54
19567,0,20,0,29,-10,00,0,40,0,00,-0,00,0,00,28,00,-4,75,0,00,12,31,-4,75,0,00,12,31
19585,0,20,0,29,-10,00,0,40,0,00,-0,00,0,00,28,00,-4,04,0,00,14,67,-4,04,0,00,14,67
19605,0,20,0,29,-10,00,0,40,0,00,-0,00,0,00,28,00,-3,43,0,00,16,67,-3,43,0,00,16,67
19621,0,20,0,29,-10,00,0,40,0,00,-0,00,0,00,28,00,-2,92,0,00,18,37,-2,92,0,00,18,37
19636,0,20,0,39,-10,09,0,40,0,10,-7,00,0,00,28,00,-3,53,0,00,19,81,-3,53,0,00,19,81
19653,-0,20,0,39,-10,09,0,00,0,10,-7,00,0,00,0,00,-4,05,0,00,16,84,-4,05,0,00,16,84
19669,-0,20,0,39,-10,09,0,00,0,10,-7,00,0,00,0,00,-4,49,0,00,14,31,-4,49,0,00,14,31
19685,-0,20,0,39,-10,09,0,00,0,10,-7,00,0,00,0,00,-4,87,0,00,12,17,-4,87,0,00,12,17
19701,-0,20,0,29,-10,19,0,00,0,00,-0,00,0,00,0,00,-4,14,0,00,10,34,-4,14,0,00,10,34
19717,-0,20,0,29,-10,19,0,00,0,00,-0,00,0,00,0,00,-3,52,0,00,8,79,-3,52,0,00,8,79
19733,-0,20,0,29,-10,19,0,00,0,00,-0,00,0,00,0,00,-2,99,0,00,7,47,-2,99,0,00,7,47
19750,-0,20,0,29,-10,09,0,00,0,00,-0,00,0,00,0,00,-2,54,0,00,6,35,-2,54,0,00,6,35
19766,0,00,0,39,-10,09,0,20,0,10,-7,00,0,00,14,00,-3,21,0,00,7,50,-3,21,0,00,7,50
19782,0,00,0,39,-10,09,0,20,0,10,-7,00,0,00,14,00,-3,78,0,00,8,47,-3,78,0,00,8,47
19798,-0,20,0,39,-10,09,0,00,0,10,-7,00,0,00,0,00,-4,26,0,00,7,20,-4,26,0,00,7,20
19814,-0,20,0,39,-10,09,0,00,0,10,-7,00,0,00,0,00,-4,67,0,00,6,12,-4,67,0,00,6,12
19831,-0,20,0,39,-10,09,0,00,0,10,-7,00,0,00,0,00,-5,02,0,00,5,20,-5,02,0,00,5,20
19847,-0,20,0,39,-10,09,0,00,0,10,-7,00,0,00,0,00,-5,32,0,00,4,42,-5,32,0,00,4,42
19867,-0,20,0,39,-10,09,0,00,0,10,-7,00,0,00,0,00,-5,57,0,00,3,76,-5,57,0,00,3,76
19883,-0,20,0,29,-10,19,0,00,0,00,-0,00,0,00,0,00,-4,74,0,00,3,20,-4,74,0,00,3,20
19899,-0,20,0,29,-10,19,0,00,0,00,-0,00,0,00,0,00,-4,02,0,00,2,72,-4,02,0,00,2,72
19915,-0,20,0,29,-10,19,0,00,0,00,-0,00,0,00,0,00,-3,42,0,00,2,31,-3,42,0,00,2,31
19932,-0,20,0,29,-10,09,0,00,0,00,-0,00,0,00,0,00,-2,91,0,00,1,96,-2,91,0,00,1,96
19948,0,00,0,39,-10,09,0,20,0,10,-7,00,0,00,14,00,-3,52,0,00,3,77,-3,52,0,00,3,77
19964,0,00,0,39,-10,09,0,20,0,10,-7,00,0,00,14,00,-4,04,0,00,5,30,-4,04,0,00,5,30
19980,-0,20,0,39,-10,09,0,00,0,10,-7,00,0,00,0,00,-4,49,0,00,4,51,-4,49,0,00,4,51
19996,-0,20,0,39,-10,09,0,00,0,10,-7,00,0,00,0,00,-4,86,0,00,3,83,-4,86,0,00,3,83
20012,-0,20,0,39,-10,09,0,00,0,10,-7,00,0,00,0,00,-5,18,0,00,3,26,-5,18,0,00,3,26
20031,-0,20,0,39,-10,09,0,00,0,10,-7,00,0,00,0,00,-5,46,0,00,2,77,-5,46,0,00,2,77
20047,-0,20,0,39,-10,00,0,00,0,10,-7,00,0,00,0,00,-5,69,0,00,2,35,-5,69,0,00,2,35
20063,-0,20,0,39,-10,09,0,00,0,10,-7,00,0,00,0,00,-5,88,0,00,2,00,-5,88,0,00,2,00
20079,-0,20,0,39,-10,19,0,00,0,10,-7,00,0,00,0,00,-6,05,0,00,1,70,-6,05,0,00,1,70
20095,-0,20,0,29,-10,19,0,00,0,00,-0,00,0,00,0,00,-5,14,0,00,1,45,-5,14,0,00,1,45
20112,-0,20,0,29,-10,19,0,00,0,00,-0,00,0,00,0,00,-4,37,0,00,1,23,-4,37,0,00,1,23
20128,-0,20,0,29,-10,19,0,00,0,00,-0,00,0,00,0,00,-3,72,0,00,1,04,-3,72,0,00,1,04
20145,-0,20,0,39,-10,09,0,00,0,10,-7,00,0,00,0,00,-4,21,0,00,0,89,-4,21,0,00,0,89
20163,-0,20,0,39,-10,09,0,00,0,10,-7,00,0,00,0,00,-4,63,0,00,0,75,-4,63,0,00,0,75
20180,-0,20,0,20,-10,09,0,00,-0,09,6,30,0,00,0,00,-2,99,0,00,0,64,-2,99,0,00,0,64
20197,-0,20,0,20,-10,09,0,00,-0,09,6,30,0,00,0,00,-1,60,0,00,0,54,-1,60,0,00,0,54
20213,-0,59,0,20,-10,09,-0,39,-0,09,6,30,0,00,-27,30,-0,41,0,00,-3,63,-0,41,0,00,-3,63
20233,-0,59,0,20,-10,39,-0,39,-0,09,6,30,0,00,-27,30,0,60,0,00,-7,18,0,60,0,00,-7,18
20252,1,27,1,08,-10,39,1,47,0,79,-55,30,0,00,102,90,-7,79,0,00,9,33,-7,79,0,00,9,33
20269,0,78,0,78,-10,00,0,98,0,49,-34,30,0,00,68,60,-11,77,0,00,18,22,-11,77,0,00,18,22
20287,0,78,0,78,-10,19,0,98,0,49,-34,30,0,00,68,60,-15,15,0,00,25,78,-15,15,0,00,25,78
20303,-0,20,0,29,-10,19,0,00,0,00,-0,00,0,00,0,00,-12,87,0,00,21,91,-12,87,0,00,21,91
20319,-0,20,0,29,-10,19,0,00,0,00,-0,00,0,00,0,00,-10,94,0,00,18,62,-10,94,0,00,18,62
20335,-0,20,0,29,-10,19,0,00,0,00,-0,00,0,00,0,00,-9,30,0,00,15,83,-9,30,0,00,15,83
20351,-0,20,0,29,-10,19,0,00,0,00,-0,00,0,00,0,00,-7,91,0,00,13,46,-7,91,0,00,13,46
20370,0,00,0,29,-10,19,0,20,0,00,-0,00,0,00,14,00,-6,72,0,00,13,54,-6,72,0,00,13,54
20386,0,00,0,69,-10,09,0,20,0,40,-28,00,0,00,14,00,-9,91,0,00,13,61,-9,91,0,00,13,61
20402,0,29,0,69,-10,09,0,49,0,40,-28,00,0,00,34,30,-12,63,0,00,16,71,-12,63,0,00,16,71
20418,0,29,0,69,-10,09,0,49,0,40,-28,00,0,00,34,30,-14,93,0,00,19,35,-14,93,0,00,19,35
20436,0,29,0,69,-10,09,0,49,0,40,-28,00,0,00,34,30,-16,89,0,00,21,59,-16,89,0,00,21,59
20452,-0,29,-0,10,-10,19,-0,09,-0,39,27,30,0,00,-6,30,-10,26,0,00,17,41,-10,26,0,00,17,41
20468,-0,29,-0,10,-10,19,-0,09,-0,39,27,30,0,00,-6,30,-4,63,0,00,13,85,-4,63,0,00,13,85
20486,-0,29,0,10,-10,19,-0,09,-0,19,13,30,0,00,-6,30,-1,94,0,00,10,83,-1,94,0,00,10,83
20502,-0,29,0,10,-10,00,-0,09,-0,19,13,30,0,00,-6,30,0,35,0,00,8,26,0,35,0,00,8,26
20518,-0,20,0,29,-10,00,0,00,0,00,-0,00,0,00,0,00,0,29,0,00,7,02,0,29,0,00,7,02
20533,-0,20,0,29,-10,00,0,00,0,00,-0,00,0,00,0,00,0,25,0,00,5,97,0,25,0,00,5,97
20549,-0,20,0,29,-10,00,0,00,0,00,-0,00,0,00,0,00,0,21,0,00,5,07,0,21,0,00,5,07
20565,-0,20,0,39,-10,09,0,00,0,10,-7,00,0,00,0,00,-0,87,0,00,4,31,-0,87,0,00,4,31
20581,-0,29,0,39,-10,09,-0,09,0,10,-7,00,0,00,-6,30,-1,79,0,00,2,72,-1,79,0,00,2,72
20598,0,20,0,20,-10,09,0,40,-0,09,6,30,0,00,28,00,-0,58,0,00,6,51,-0,58,0,00,6,51
20614,0,20,0,20,-10,09,0,40,-0,09,6,30,0,00,28,00,0,46,0,00,9,74,0,46,0,00,9,74
20630,0,20,0,20,-10,09,0,40,-0,09,6,30,0,00,28,00,1,33,0,00,12,47,1,33,0,00,12,47
20646,0,20,0,20,-10,09,0,40,-0,09,6,30,0,00,28,00,2,08,0,00,14,80,2,08,0,00,14,80
20662,0,00,0,39,-10,09,0,20,0,10,-7,00,0,00,14,00,0,72,0,00,14,68,0,72,0,00,14,68
20678,0,00,0,39,-10,09,0,20,0,10,-7,00,0,00,14,00,-0,44,0,00,14,58,-0,44,0,00,14,58
20696,0,00,0,39,-10,09,0,20,0,10,-7,00,0,00,14,00,-1,43,0,00,14,49,-1,43,0,00,14,49
20714,0,00,0,59,-10,00,0,20,0,30,-21,00,0,00,14,00,-4,36,0,00,14,42,-4,36,0,00,14,42
20730,0,29,0,59,-10,00,0,49,0,30,-21,00,0,00,34,30,-6,86,0,00,17,40,-6,86,0,00,17,40
20746,0,29,0,59,-10,00,0,49,0,30,-21,00,0,00,34,30,-8,98,0,00,19,94,-8,98,0,00,19,94
20761,0,29,0,59,-10,00,0,49,0,30,-21,00,0,00,34,30,-10,78,0,00,22,09,-10,78,0,00,22,09
20779,0,00,0,20,-10,09,0,20,-0,09,6,30,0,00,14,00,-8,22,0,00,20,88,-8,22,0,00,20,88
20795,0,00,0,20,-10,09,0,20,-0,09,6,30,0,00,14,00,-6,04,0,00,19,85,-6,04,0,00,19,85
20811,0,00,0,39,-10,29,0,20,0,10,-7,00,0,00,14,00,-6,19,0,00,18,97,-6,19,0,00,18,97
20828,0,00,0,39,-10,29,0,20,0,10,-7,00,0,00,14,00,-6,31,0,00,18,22,-6,31,0,00,18,22
20845,0,00,0,39,-10,29,0,20,0,10,-7,00,0,00,14,00,-6,41,0,00,17,59,-6,41,0,00,17,59
20861,0,00,0,39,-10,09,0,20,0,10,-7,00,0,00,14,00,-6,50,0,00,17,05,-6,50,0,00,17,05
20878,0,00,0,39,-10,09,0,20,0,10,-7,00,0,00,14,00,-6,57,0,00,16,59,-6,57,0,00,16,59
20894,0,00,0,49,-10,19,0,20,0,20,-14,00,0,00,14,00,-7,69,0,00,16,20,-7,69,0,00,16,20
20912,-0,29,0,49,-10,19,-0,09,0,20,-14,00,0,00,-6,30,-8,64,0,00,12,83,-8,64,0,00,12,83
20928,-0,20,0,59,-10,00,0,00,0,30,-21,00,0,00,0,00,-10,49,0,00,10,90,-10,49,0,00,10,90
20945,-0,20,0,59,-10,00,0,00,0,30,-21,00,0,00,0,00,-12,07,0,00,9,27,-12,07,0,00,9,27
20961,-0,20,0,59,-10,00,0,00,0,30,-21,00,0,00,0,00,-13,41,0,00,7,88,-13,41,0,00,7,88
20978,-0,20,0,59,-10,09,0,00,0,30,-21,00,0,00,0,00,-14,55,0,00,6,70,-14,55,0,00,6,70
20995,-0,29,0,49,-10,19,-0,09,0,20,-14,00,0,00,-6,30,-14,46,0,00,4,75,-14,46,0,00,4,75
21013,-0,29,0,39,-10,09,-0,09,0,10,-7,00,0,00,-6,30,-13,34,0,00,3,09,-13,34,0,00,3,09
21029,-0,29,0,39,-10,09,-0,09,0,10,-7,00,0,00,-6,30,-12,39,0,00,1,68,-12,39,0,00,1,68
21045,-0,29,0,39,-10,09,-0,09,0,10,-7,00,0,00,-6,30,-11,58,0,00,0,48,-11,58,0,00,0,48
21063,-0,29,0,39,-10,09,-0,09,0,10,-7,00,0,00,-6,30,-10,90,0,00,-0,53,-10,90,0,00,-0,53
21079,-0,20,0,39,-10,09,0,00,0,10,-7,00,0,00,0,00,-10,31,0,00,-0,45,-10,31,0,00,-0,45
21095,-0,20,0,39,-10,09,0,00,0,10,-7,00,0,00,0,00,-9,81,0,00,-0,39,-9,81,0,00,-0,39
21111,-0,20,0,39,-10,09,0,00,0,10,-7,00,0,00,0,00,-9,39,0,00,-0,33,-9,39,0,00,-0,33
21128,-0,20,0,39,-10,09,0,00,0,10,-7,00,0,00,0,00,-9,03,0,00,-0,28,-9,03,0,00,-0,28
21145,-0,20,0,39,-10,09,0,00,0,10,-7,00,0,00,0,00,-8,73,0,00,-0,24,-8,73,0,00,-0,24
21161,-0,20,0,39,-10,09,0,00,0,10,-7,00,0,00,0,00,-8,47,0,00,-0,20,-8,47,0,00,-0,20
21178,-0,29,0,69,-10,09,-0,09,0,40,-28,00,0,00,-6,30,-11,40,0,00,-1,12,-11,40,0,00,-1,12
21195,-0,29,0,69,-10,09,-0,09,0,40,-28,00,0,00,-6,30,-13,89,0,00,-1,89,-13,89,0,00,-1,89
21211,-0,29,0,69,-10,09,-0,09,0,40,-28,00,0,00,-6,30,-16,01,0,00,-2,55,-16,01,0,00,-2,55
21228,-0,29,0,69,-10,09,-0,09,0,40,-28,00,0,00,-6,30,-17,80,0,00,-3,12,-17,80,0,00,-3,12
21245,-0,29,0,69,-10,09,-0,09,0,40,-28,00,0,00,-6,30,-19,33,0,00,-3,59,-19,33,0,00,-3,59
21262,-0,29,0,69,-10,09,-0,09,0,40,-28,00,0,00,-6,30,-20,63,0,00,-4,00,-20,63,0,00,-4,00
21278,-0,29,0,69,-10,09,-0,09,0,40,-28,00,0,00,-6,30,-21,74,0,00,-4,34,-21,74,0,00,-4,34
21294,-0,20,0,69,-10,09,0,00,0,40,-28,00,0,00,0,00,-22,68,0,00,-3,69,-22,68,0,00,-3,69
21310,-0,20,0,69,-10,19,0,00,0,40,-28,00,0,00,0,00,-23,48,0,00,-3,14,-23,48,0,00,-3,14
21326,-0,20,0,49,-10,19,0,00,0,20,-14,00,0,00,0,00,-22,05,0,00,-2,67,-22,05,0,00,-2,67
21342,-0,20,0,49,-10,19,0,00,0,20,-14,00,0,00,0,00,-20,85,0,00,-2,27,-20,85,0,00,-2,27
21358,-0,20,0,49,-10,19,0,00,0,20,-14,00,0,00,0,00,-19,82,0,00,-1,93,-19,82,0,00,-1,93
21374,-0,20,0,69,-10,09,0,00,0,40,-28,00,0,00,0,00,-21,05,0,00,-1,64,-21,05,0,00,-1,64
21390,-0,29,0,69,-10,09,-0,09,0,40,-28,00,0,00,-6,30,-22,09,0,00,-2,34,-22,09,0,00,-2,34
21406,-0,29,0,78,-10,29,-0,09,0,49,-34,30,0,00,-6,30,-23,92,0,00,-2,93,-23,92,0,00,-2,93
21422,-0,29,0,78,-10,29,-0,09,0,49,-34,30,0,00,-6,30,-25,48,0,00,-3,44,-25,48,0,00,-3,44
21438,-0,29,0,78,-10,29,-0,09,0,49,-34,30,0,00,-6,30,-26,80,0,00,-3,87,-26,80,0,00,-3,87
21455,-0,29,0,78,-10,29,-0,09,0,49,-34,30,0,00,-6,30,-27,93,0,00,-4,23,-27,93,0,00,-4,23
21478,-0,59,0,78,-10,29,-0,39,0,49,-34,30,0,00,-27,30,-28,88,0,00,-7,69,-28,88,0,00,-7,69
21495,-0,59,0,69,-10,09,-0,39,0,40,-28,00,0,00,-27,30,-28,75,0,00,-10,63,-28,75,0,00,-10,63
21511,-0,49,0,69,-10,09,-0,29,0,40,-28,00,0,00,-20,30,-28,64,0,00,-12,08,-28,64,0,00,-12,08
21529,-0,49,0,78,-10,00,-0,29,0,49,-34,30,0,00,-20,30,-29,49,0,00,-13,32,-29,49,0,00,-13,32
21545,-0,49,0,78,-10,00,-0,29,0,49,-34,30,0,00,-20,30,-30,21,0,00,-14,36,-30,21,0,00,-14,36
21561,-0,49,0,78,-10,00,-0,29,0,49,-34,30,0,00,-20,30,-30,82,0,00,-15,25,-30,82,0,00,-15,25
21578,-0,49,0,78,-10,19,-0,29,0,49,-34,30,0,00,-20,30,-31,34,0,00,-16,01,-31,34,0,00,-16,01
21595,-0,49,0,78,-10,00,-0,29,0,49,-34,30,0,00,-20,30,-31,79,0,00,-16,65,-31,79,0,00,-16,65
21612,-0,49,0,78,-10,00,-0,29,0,49,-34,30,0,00,-20,30,-32,16,0,00,-17,20,-32,16,0,00,-17,20
21630,-0,49,0,78,-10,00,-0,29,0,49,-34,30,0,00,-20,30,-32,48,0,00,-17,67,-32,48,0,00,-17,67
21647,-0,49,0,78,-10,00,-0,29,0,49,-34,30,0,00,-20,30,-32,76,0,00,-18,06,-32,76,0,00,-18,06
21663,-0,49,0,78,-10,00,-0,29,0,49,-34,30,0,00,-20,30,-32,99,0,00,-18,40,-32,99,0,00,-18,40
21680,-0,29,1,08,-10,58,-0,09,0,79,-55,30,0,00,-6,30,-36,34,0,00,-16,58,-36,34,0,00,-16,58
21696,-0,29,1,08,-10,58,-0,09,0,79,-55,30,0,00,-6,30,-39,18,0,00,-15,04,-39,18,0,00,-15,04
21713,-0,49,0,88,-10,39,-0,29,0,59,-41,30,0,00,-20,30,-39,50,0,00,-15,83,-39,50,0,00,-15,83
21731,-0,49,0,88,-10,39,-0,29,0,59,-41,30,0,00,-20,30,-39,77,0,00,-16,50,-39,77,0,00,-16,50
21750,-0,49,0,88,-10,39,-0,29,0,59,-41,30,0,00,-20,30,-40,00,0,00,-17,07,-40,00,0,00,-17,07
21766,-0,49,0,88,-10,39,-0,29,0,59,-41,30,0,00,-20,30,-40,19,0,00,-17,55,-40,19,0,00,-17,55
21783,-0,49,0,88,-10,39,-0,29,0,59,-41,30,0,00,-20,30,-40,36,0,00,-17,97,-40,36,0,00,-17,97
21799,-0,29,0,88,-10,19,-0,09,0,59,-41,30,0,00,-6,30,-40,50,0,00,-16,22,-40,50,0,00,-16,22
21816,-0,29,0,88,-10,19,-0,09,0,59,-41,30,0,00,-6,30,-40,62,0,00,-14,73,-40,62,0,00,-14,73
21832,-0,88,0,69,-9,90,-0,68,0,40,-28,00,0,00,-47,60,-38,73,0,00,-19,66,-38,73,0,00,-19,66
21847,-0,88,0,69,-9,90,-0,68,0,40,-28,00,0,00,-47,60,-37,12,0,00,-23,85,-37,12,0,00,-23,85
21863,-0,88,0,69,-9,90,-0,68,0,40,-28,00,0,00,-47,60,-35,75,0,00,-27,41,-35,75,0,00,-27,41
21879,-0,88,0,69,-10,39,-0,68,0,40,-28,00,0,00,-47,60,-34,59,0,00,-30,44,-34,59,0,00,-30,44
21896,-0,59,0,88,-10,39,-0,39,0,59,-41,30,0,00,-27,30,-35,59,0,00,-29,97,-35,59,0,00,-29,97
21911,-0,59,0,88,-10,00,-0,39,0,59,-41,30,0,00,-27,30,-36,45,0,00,-29,57,-36,45,0,00,-29,57
21929,-0,88,0,78,-10,00,-0,68,0,49,-34,30,0,00,-47,60,-36,13,0,00,-32,27,-36,13,0,00,-32,27
21945,-0,88,0,78,-10,00,-0,68,0,49,-34,30,0,00,-47,60,-35,85,0,00,-34,57,-35,85,0,00,-34,57
21961,-0,88,0,78,-10,00,-0,68,0,49,-34,30,0,00,-47,60,-35,62,0,00,-36,53,-35,62,0,00,-36,53
21978,-0,59,0,78,-10,29,-0,39,0,49,-34,30,0,00,-27,30,-35,42,0,00,-35,14,-35,42,0,00,-35,14
21995,-0,59,0,78,-10,29,-0,39,0,49,-34,30,0,00,-27,30,-35,25,0,00,-33,97,-35,25,0,00,-33,97
22012,-0,59,0,88,-10,39,-0,39,0,59,-41,30,0,00,-27,30,-36,16,0,00,-32,97,-36,16,0,00,-32,97
22028,-0,59,0,88,-10,39,-0,39,0,59,-41,30,0,00,-27,30,-36,93,0,00,-32,12,-36,93,0,00,-32,12
22045,-0,59,0,88,-10,39,-0,39,0,59,-41,30,0,00,-27,30,-37,59,0,00,-31,39,-37,59,0,00,-31,39
22062,-0,59,0,88,-10,39,-0,39,0,59,-41,30,0,00,-27,30,-38,14,0,00,-30,78,-38,14,0,00,-30,78
22078,-0,59,0,88,-10,39,-0,39,0,59,-41,30,0,00,-27,30,-38,62,0,00,-30,26,-38,62,0,00,-30,26
22095,-0,59,0,59,-9,80,-0,39,0,30,-21,00,0,00,-27,30,-35,97,0,00,-29,81,-35,97,0,00,-29,81
22117,-1,57,0,59,-9,80,-1,37,0,30,-21,00,0,00,-95,90,-33,73,0,00,-39,73,-33,73,0,00,-39,73
22134,-1,37,0,59,-10,00,-1,17,0,30,-21,00,0,00,-81,90,-31,82,0,00,-46,05,-31,82,0,00,-46,05
22152,-1,37,0,59,-10,00,-1,17,0,30,-21,00,0,00,-81,90,-30,20,0,00,-51,43,-30,20,0,00,-51,43
22168,-1,37,0,59,-10,00,-1,17,0,30,-21,00,0,00,-81,90,-28,82,0,00,-56,00,-28,82,0,00,-56,00
22183,-1,37,0,49,-10,19,-1,17,0,20,-14,00,0,00,-81,90,-26,59,0,00,-59,89,-26,59,0,00,-59,89
22199,-1,08,0,49,-10,19,-0,88,0,20,-14,00,0,00,-61,60,-24,71,0,00,-60,14,-24,71,0,00,-60,14
22217,-1,08,0,69,-10,09,-0,88,0,40,-28,00,0,00,-61,60,-25,20,0,00,-60,36,-25,20,0,00,-60,36
22233,-1,27,0,69,-10,09,-1,07,0,40,-28,00,0,00,-74,90,-25,62,0,00,-62,54,-25,62,0,00,-62,54
22249,-0,88,0,78,-10,78,-0,68,0,49,-34,30,0,00,-47,60,-26,92,0,00,-60,30,-26,92,0,00,-60,30
22265,-0,88,0,78,-10,78,-0,68,0,49,-34,30,0,00,-47,60,-28,03,0,00,-58,40,-28,03,0,00,-58,40
22281,-0,88,0,78,-10,78,-0,68,0,49,-34,30,0,00,-47,60,-28,97,0,00,-56,78,-28,97,0,00,-56,78
22297,-0,88,0,78,-10,78,-0,68,0,49,-34,30,0,00,-47,60,-29,77,0,00,-55,40,-29,77,0,00,-55,40
22313,-2,16,0,49,-9,70,-1,96,0,20,-14,00,0,00,-137,20,-27,40,0,00,-67,67,-27,40,0,00,-67,67
22330,-2,16,0,49,-9,31,-1,96,0,20,-14,00,0,00,-137,20,-25,39,0,00,-78,10,-25,39,0,00,-78,10
22349,-2,35,0,20,-9,31,-2,15,-0,09,6,30,0,00,-150,50,-20,64,0,00,-88,96,-20,64,0,00,-88,96
22369,-2,35,0,20,-9,31,-2,15,-0,09,6,30,0,00,-150,50,-16,60,0,00,-98,19,-16,60,0,00,-90,00
22385,-2,35,0,20,-9,31,-2,15,-0,09,6,30,0,00,-150,50,-13,16,0,00,-106,04,-13,16,0,00,-90,00
22401,-1,96,0,20,-9,90,-1,76,-0,09,6,30,0,00,-123,20,-10,24,0,00,-108,61,-10,24,0,00,-90,00
22416,-1,96,0,20,-9,90,-1,76,-0,09,6,30,0,00,-123,20,-7,76,0,00,-110,80,-7,76,0,00,-90,00
22432,-1,86,0,39,-10,09,-1,66,0,10,-7,00,0,00,-116,20,-7,65,0,00,-111,61,-7,65,0,00,-90,00
22448,-1,86,0,39,-10,09,-1,66,0,10,-7,00,0,00,-116,20,-7,55,0,00,-112,30,-7,55,0,00,-90,00
22464,-1,86,0,39,-10,09,-1,66,0,10,-7,00,0,00,-116,20,-7,47,0,00,-112,88,-7,47,0,00,-90,00
22480,-1,86,0,39,-10,09,-1,66,0,10,-7,00,0,00,-116,20,-7,40,0,00,-113,38,-7,40,0,00,-90,00
22496,-1,86,0,39,-10,09,-1,66,0,10,-7,00,0,00,-116,20,-7,34,0,00,-113,80,-7,34,0,00,-90,00
22512,-1,86,0,39,-10,09,-1,66,0,10,-7,00,0,00,-116,20,-7,29,0,00,-114,16,-7,29,0,00,-90,00
22529,-1,86,0,39,-10,09,-1,66,0,10,-7,00,0,00,-116,20,-7,24,0,00,-114,47,-7,24,0,00,-90,00
22549,-1,96,0,59,-10,00,-1,76,0,30,-21,00,0,00,-123,20,-9,31,0,00,-115,78,-9,31,0,00,-90,00
22568,-1,96,0,59,-10,00,-1,76,0,30,-21,00,0,00,-123,20,-11,06,0,00,-116,89,-11,06,0,00,-90,00
22587,-1,96,0,59,-10,00,-1,76,0,30,-21,00,0,00,-123,20,-12,55,0,00,-117,84,-12,55,0,00,-90,00
22603,-1,96,0,49,-9,90,-1,76,0,20,-14,00,0,00,-123,20,-12,77,0,00,-118,64,-12,77,0,00,-90,00
22619,-2,16,0,49,-9,90,-1,96,0,20,-14,00,0,00,-137,20,-12,95,0,00,-121,43,-12,95,0,00,-90,00
22636,-2,16,0,39,-9,80,-1,96,0,10,-7,00,0,00,-137,20,-12,06,0,00,-123,79,-12,06,0,00,-90,00
22653,-2,16,0,39,-9,80,-1,96,0,10,-7,00,0,00,-137,20,-11,30,0,00,-125,80,-11,30,0,00,-90,00
22670,-2,16,0,39,-9,80,-1,96,0,10,-7,00,0,00,-137,20,-10,66,0,00,-127,51,-10,66,0,00,-90,00
22686,-2,16,0,39,-9,80,-1,96,0,10,-7,00,0,00,-137,20,-10,11,0,00,-128,97,-10,11,0,00,-90,00
22701,-2,16,0,39,-9,80,-1,96,0,10,-7,00,0,00,-137,20,-9,64,0,00,-130,20,-9,64,0,00,-90,00
22716,-2,16,0,39,-9,80,-1,96,0,10,-7,00,0,00,-137,20,-9,25,0,00,-131,25,-9,25,0,00,-90,00
22732,-1,96,0,39,-10,09,-1,76,0,10,-7,00,0,00,-123,20,-8,91,0,00,-130,04,-8,91,0,00,-90,00
22748,-1,96,0,39,-9,90,-1,76,0,10,-7,00,0,00,-123,20,-8,62,0,00,-129,02,-8,62,0,00,-90,00
22765,-1,86,0,49,-9,90,-1,66,0,20,-14,00,0,00,-116,20,-9,43,0,00,-127,09,-9,43,0,00,-90,00
22780,-1,86,0,49,-9,90,-1,66,0,20,-14,00,0,00,-116,20,-10,11,0,00,-125,46,-10,11,0,00,-90,00
22796,-1,86,0,49,-9,90,-1,66,0,20,-14,00,0,00,-116,20,-10,70,0,00,-124,07,-10,70,0,00,-90,00
22812,-1,86,0,49,-9,80,-1,66,0,20,-14,00,0,00,-116,20,-11,19,0,00,-122,89,-11,19,0,00,-90,00
22828,-1,86,0,39,-9,80,-1,66,0,10,-7,00,0,00,-116,20,-10,56,0,00,-121,89,-10,56,0,00,-90,00
22844,-1,86,0,49,-9,70,-1,66,0,20,-14,00,0,00,-116,20,-11,08,0,00,-121,03,-11,08,0,00,-90,00
22861,-1,86,0,49,-9,70,-1,66,0,20,-14,00,0,00,-116,20,-11,52,0,00,-120,31,-11,52,0,00,-90,00
22878,-1,86,0,49,-9,70,-1,66,0,20,-14,00,0,00,-116,20,-11,89,0,00,-119,69,-11,89,0,00,-90,00
22894,-1,86,0,49,-9,70,-1,66,0,20,-14,00,0,00,-116,20,-12,21,0,00,-119,17,-12,21,0,00,-90,00
22911,-1,27,0,78,-10,00,-1,07,0,49,-34,30,0,00,-74,90,-15,52,0,00,-112,53,-15,52,0,00,-90,00
22928,-1,27,0,78,-10,00,-1,07,0,49,-34,30,0,00,-74,90,-18,34,0,00,-106,88,-18,34,0,00,-90,00
22944,-1,27,0,78,-9,80,-1,07,0,49,-34,30,0,00,-74,90,-20,73,0,00,-102,09,-20,73,0,00,-90,00
22961,-1,27,0,78,-9,80,-1,07,0,49,-34,30,0,00,-74,90,-22,77,0,00,-98,01,-22,77,0,00,-90,00
22978,-1,27,0,78,-9,80,-1,07,0,49,-34,30,0,00,-74,90,-24,50,0,00,-94,54,-24,50,0,00,-90,00
22995,-1,27,0,78,-9,80,-1,07,0,49,-34,30,0,00,-74,90,-25,97,0,00,-91,60,-25,97,0,00,-90,00
23013,-1,27,0,78,-9,80,-1,07,0,49,-34,30,0,00,-74,90,-27,22,0,00,-89,09,-27,22,0,00,-89,09
23031,-0,88,0,98,-9,80,-0,68,0,69,-48,30,0,00,-47,60,-30,38,0,00,-82,87,-30,38,0,00,-82,87
23049,-0,88,0,98,-11,07,-0,68,0,69,-48,30,0,00,-47,60,-33,07,0,00,-77,58,-33,07,0,00,-77,58
23065,-0,49,1,18,-11,07,-0,29,0,89,-62,30,0,00,-20,30,-37,45,0,00,-68,99,-37,45,0,00,-68,99
23081,-0,49,1,18,-11,07,-0,29,0,89,-62,30,0,00,-20,30,-41,18,0,00,-61,68,-41,18,0,00,-61,68
23098,-0,49,1,18,-11,07,-0,29,0,89,-62,30,0,00,-20,30,-44,35,0,00,-55,48,-44,35,0,00,-55,48
23114,-0,49,1,08,-9,41,-0,29,0,79,-55,30,0,00,-20,30,-45,99,0,00,-50,20,-45,99,0,00,-50,20
23130,-0,59,1,08,-9,41,-0,39,0,79,-55,30,0,00,-27,30,-47,39,0,00,-46,76,-47,39,0,00,-46,76
23146,-0,59,0,69,-9,90,-0,39,0,40,-28,00,0,00,-27,30,-44,48,0,00,-43,84,-44,48,0,00,-43,84
23162,-0,78,0,69,-9,90,-0,58,0,40,-28,00,0,00,-40,60,-42,01,0,00,-43,36,-42,01,0,00,-43,36
23178,-0,78,0,69,-9,90,-0,58,0,40,-28,00,0,00,-40,60,-39,91,0,00,-42,94,-39,91,0,00,-42,94
23196,-0,78,0,69,-9,90,-0,58,0,40,-28,00,0,00,-40,60,-38,12,0,00,-42,59,-38,12,0,00,-42,59
23214,-0,78,0,98,-10,09,-0,58,0,69,-48,30,0,00,-40,60,-39,65,0,00,-42,29,-39,65,0,00,-42,29
23230,-0,78,0,98,-10,19,-0,58,0,69,-48,30,0,00,-40,60,-40,95,0,00,-42,04,-40,95,0,00,-42,04
23246,-0,49,0,88,-10,19,-0,29,0,59,-41,30,0,00,-20,30,-41,00,0,00,-38,78,-41,00,0,00,-38,78
23264,-0,49,0,98,-10,09,-0,29,0,69,-48,30,0,00,-20,30,-42,09,0,00,-36,01,-42,09,0,00,-36,01
23280,-0,49,0,98,-10,09,-0,29,0,69,-48,30,0,00,-20,30,-43,02,0,00,-33,65,-43,02,0,00,-33,65
23296,-0,49,0,98,-10,09,-0,29,0,69,-48,30,0,00,-20,30,-43,82,0,00,-31,65,-43,82,0,00,-31,65
23312,-0,49,0,98,-10,09,-0,29,0,69,-48,30,0,00,-20,30,-44,49,0,00,-29,95,-44,49,0,00,-29,95
23328,-0,59,0,88,-10,19,-0,39,0,59,-41,30,0,00,-27,30,-44,01,0,00,-29,55,-44,01,0,00,-29,55
23345,-0,59,0,88,-10,19,-0,39,0,59,-41,30,0,00,-27,30,-43,60,0,00,-29,21,-43,60,0,00,-29,21
23361,-0,59,0,69,-10,09,-0,39,0,40,-28,00,0,00,-27,30,-41,26,0,00,-28,92,-41,26,0,00,-28,92
23378,-0,59,0,69,-10,09,-0,39,0,40,-28,00,0,00,-27,30,-39,27,0,00,-28,68,-39,27,0,00,-28,68
23396,-0,59,0,69,-10,09,-0,39,0,40,-28,00,0,00,-27,30,-37,58,0,00,-28,47,-37,58,0,00,-28,47
23412,-0,59,0,69,-10,09,-0,39,0,40,-28,00,0,00,-27,30,-36,15,0,00,-28,30,-36,15,0,00,-28,30
23428,-0,20,0,69,-10,09,0,00,0,40,-28,00,0,00,0,00,-34,92,0,00,-24,05,-34,92,0,00,-24,05
23445,-0,20,0,69,-10,09,0,00,0,40,-28,00,0,00,0,00,-33,88,0,00,-20,45,-33,88,0,00,-20,45
23461,-0,20,0,69,-10,09,0,00,0,40,-28,00,0,00,0,00,-33,00,0,00,-17,38,-33,00,0,00,-17,38
23478,-0,29,0,49,-9,90,-0,09,0,20,-14,00,0,00,-6,30,-30,15,0,00,-15,72,-30,15,0,00,-15,72
23494,-0,29,0,49,-9,90,-0,09,0,20,-14,00,0,00,-6,30,-27,73,0,00,-14,30,-27,73,0,00,-14,30
23511,-0,29,0,49,-9,90,-0,09,0,20,-14,00,0,00,-6,30,-25,67,0,00,-13,10,-25,67,0,00,-13,10
23530,-0,29,0,49,-10,39,-0,09,0,20,-14,00,0,00,-6,30,-23,92,0,00,-12,08,-23,92,0,00,-12,08
23546,-0,49,0,59,-10,39,-0,29,0,30,-21,00,0,00,-20,30,-23,48,0,00,-13,32,-23,48,0,00,-13,32
23562,-0,49,0,59,-10,68,-0,29,0,30,-21,00,0,00,-20,30,-23,11,0,00,-14,36,-23,11,0,00,-14,36
23578,-0,49,1,18,-10,68,-0,29,0,89,-62,30,0,00,-20,30,-28,99,0,00,-15,25,-28,99,0,00,-15,25
23594,-0,49,1,18,-10,68,-0,29,0,89,-62,30,0,00,-20,30,-33,98,0,00,-16,01,-33,98,0,00,-16,01
23611,-0,49,1,18,-10,68,-0,29,0,89,-62,30,0,00,-20,30,-38,23,0,00,-16,65,-38,23,0,00,-16,65
23628,-0,29,0,20,-10,09,-0,09,-0,09,6,30,0,00,-6,30,-31,55,0,00,-15,10,-31,55,0,00,-15,10
23645,-0,29,0,20,-10,09,-0,09,-0,09,6,30,0,00,-6,30,-25,87,0,00,-13,78,-25,87,0,00,-13,78
23663,-0,20,0,39,-10,09,0,00,0,10,-7,00,0,00,0,00,-23,04,0,00,-11,71,-23,04,0,00,-11,71
23679,-0,20,0,39,-10,09,0,00,0,10,-7,00,0,00,0,00,-20,64,0,00,-9,96,-20,64,0,00,-9,96
23695,-0,20,0,39,-10,09,0,00,0,10,-7,00,0,00,0,00,-18,59,0,00,-8,46,-18,59,0,00,-8,46
23711,-0,20,0,39,-10,09,0,00,0,10,-7,00,0,00,0,00,-16,85,0,00,-7,19,-16,85,0,00,-7,19
23728,-0,20,0,39,-10,09,0,00,0,10,-7,00,0,00,0,00,-15,37,0,00,-6,11,-15,37,0,00,-6,11
23744,-0,20,0,29,-10,19,0,00,0,00,-0,00,0,00,0,00,-13,07,0,00,-5,20,-13,07,0,00,-5,20
23761,-0,20,0,29,-10,19,0,00,0,00,-0,00,0,00,0,00,-11,11,0,00,-4,42,-11,11,0,00,-4,42
23778,0,20,0,20,-10,09,0,40,-0,09,6,30,0,00,28,00,-8,50,0,00,0,44,-8,50,0,00,0,44
23796,0,20,0,20,-10,09,0,40,-0,09,6,30,0,00,28,00,-6,28,0,00,4,58,-6,28,0,00,4,58
23812,0,20,0,20,-10,09,0,40,-0,09,6,30,0,00,28,00,-4,39,0,00,8,09,-4,39,0,00,8,09
23828,0,20,0,20,-10,19,0,40,-0,09,6,30,0,00,28,00,-2,79,0,00,11,08,-2,79,0,00,11,08
23844,-0,20,0,29,-10,19,0,00,0,00,-0,00,0,00,0,00,-2,37,0,00,9,42,-2,37,0,00,9,42
23861,-0,20,0,29,-10,19,0,00,0,00,-0,00,0,00,0,00,-2,01,0,00,8,00,-2,01,0,00,8,00
23878,-0,20,0,29,-10,19,0,00,0,00,-0,00,0,00,0,00,-1,71,0,00,6,80,-1,71,0,00,6,80
23895,-0,20,0,29,-10,19,0,00,0,00,-0,00,0,00,0,00,-1,45,0,00,5,78,-1,45,0,00,5,78
23911,-0,20,0,29,-10,19,0,00,0,00,-0,00,0,00,0,00,-1,24,0,00,4,92,-1,24,0,00,4,92
23930,-0,20,0,29,-10,19,0,00,0,00,-0,00,0,00,0,00,-1,05,0,00,4,18,-1,05,0,00,4,18
23949,-0,20,0,29,-10,19,0,00,0,00,-0,00,0,00,0,00,-0,89,0,00,3,55,-0,89,0,00,3,55
23966,0,20,0,29,-10,19,0,40,0,00,-0,00,0,00,28,00,-0,76,0,00,7,22,-0,76,0,00,7,22
23984,0,20,0,29,-10,19,0,40,0,00,-0,00,0,00,28,00,-0,65,0,00,10,34,-0,65,0,00,10,34
24001,0,00,0,29,-10,19,0,20,0,00,-0,00,0,00,14,00,-0,55,0,00,10,89,-0,55,0,00,10,89
24018,0,00,0,29,-10,19,0,20,0,00,-0,00,0,00,14,00,-0,47,0,00,11,35,-0,47,0,00,11,35
24034,0,00,0,29,-10,19,0,20,0,00,-0,00,0,00,14,00,-0,40,0,00,11,75,-0,40,0,00,11,75
24050,-0,20,0,20,-10,09,0,00,-0,09,6,30,0,00,0,00,0,61,0,00,9,99,0,61,0,00,9,99
24066,-0,20,0,20,-10,09,0,00,-0,09,6,30,0,00,0,00,1,46,0,00,8,49,1,46,0,00,8,49
24082,-0,49,0,00,-10,09,-0,29,-0,29,20,30,0,00,-20,30,4,29,0,00,4,17,4,29,0,00,4,17
24097,-0,49,0,00,-10,09,-0,29,-0,29,20,30,0,00,-20,30,6,69,0,00,0,50,6,69,0,00,0,50
24114,-0,49,0,00,-10,09,-0,29,-0,29,20,30,0,00,-20,30,8,73,0,00,-2,62,8,73,0,00,-2,62
24129,-0,49,0,00,-9,60,-0,29,-0,29,20,30,0,00,-20,30,10,47,0,00,-5,27,10,47,0,00,-5,27
24146,0,59,0,59,-9,60,0,79,0,30,-21,00,0,00,55,30,5,75,0,00,3,81,5,75,0,00,3,81
24161,0,59,0,59,-10,39,0,79,0,30,-21,00,0,00,55,30,1,73,0,00,11,54,1,73,0,00,11,54
24178,0,29,0,59,-10,39,0,49,0,30,-21,00,0,00,34,30,-1,68,0,00,14,95,-1,68,0,00,14,95
24194,0,29,1,27,-9,41,0,49,0,98,-68,60,0,00,34,30,-11,71,0,00,17,85,-11,71,0,00,17,85
24211,1,27,1,27,-9,41,1,47,0,98,-68,60,0,00,102,90,-20,25,0,00,30,61,-20,25,0,00,30,61
24228,1,27,1,27,-9,41,1,47,0,98,-68,60,0,00,102,90,-27,50,0,00,41,45,-27,50,0,00,41,45
24245,1,27,1,27,-9,41,1,47,0,98,-68,60,0,00,102,90,-33,67,0,00,50,67,-33,67,0,00,50,67
24261,1,08,1,27,-10,00,1,28,0,98,-68,60,0,00,89,60,-38,91,0,00,56,51,-38,91,0,00,56,51
24280,1,08,1,27,-10,00,1,28,0,98,-68,60,0,00,89,60,-43,36,0,00,61,47,-43,36,0,00,61,47
24297,1,08,1,27,-10,00,1,28,0,98,-68,60,0,00,89,60,-47,15,0,00,65,69,-47,15,0,00,65,69
24313,1,08,1,27,-10,00,1,28,0,98,-68,60,0,00,89,60,-50,36,0,00,69,28,-50,36,0,00,69,28
24329,1,08,1,27,-10,00,1,28,0,98,-68,60,0,00,89,60,-53,10,0,00,72,33,-53,10,0,00,72,33
24345,1,08,1,67,-10,09,1,28,1,38,-96,60,0,00,89,60,-59,62,0,00,74,92,-59,62,0,00,74,92
24362,1,37,1,67,-10,09,1,57,1,38,-96,60,0,00,109,90,-65,17,0,00,80,17,-65,17,0,00,80,17
24379,1,67,1,76,-10,00,1,87,1,47,-102,90,0,00,130,90,-70,83,0,00,87,78,-70,83,0,00,87,78
24396,1,67,1,76,-10,00,1,87,1,47,-102,90,0,00,130,90,-75,64,0,00,94,24,-75,64,0,00,90,00
24413,1,67,1,76,-10,00,1,87,1,47,-102,90,0,00,130,90,-79,73,0,00,99,74,-79,73,0,00,90,00
24429,1,67,1,76,-10,00,1,87,1,47,-102,90,0,00,130,90,-83,21,0,00,104,42,-83,21,0,00,90,00
24445,1,27,1,57,-10,00,1,47,1,28,-89,60,0,00,102,90,-84,16,0,00,104,19,-84,16,0,00,90,00
24461,1,27,1,57,-9,80,1,47,1,28,-89,60,0,00,102,90,-84,98,0,00,104,00,-84,98,0,00,90,00
24479,1,37,1,57,-9,80,1,57,1,28,-89,60,0,00,109,90,-85,67,0,00,104,88,-85,67,0,00,90,00
24495,1,37,1,47,-10,19,1,57,1,18,-82,60,0,00,109,90,-85,21,0,00,105,63,-85,21,0,00,90,00
24513,1,08,1,47,-10,19,1,28,1,18,-82,60,0,00,89,60,-84,82,0,00,103,23,-84,82,0,00,90,00
24529,1,08,1,47,-10,19,1,28,1,18,-82,60,0,00,89,60,-84,49,0,00,101,18,-84,49,0,00,90,00
24545,1,08,1,47,-10,19,1,28,1,18,-82,60,0,00,89,60,-84,20,0,00,99,45,-84,20,0,00,90,00
24561,1,37,1,37,-9,51,1,57,1,08,-75,60,0,00,109,90,-82,91,0,00,101,01,-82,91,0,00,90,00
24581,1,37,1,37,-9,90,1,57,1,08,-75,60,0,00,109,90,-81,82,0,00,102,35,-81,82,0,00,90,00
24597,1,27,1,47,-9,90,1,47,1,18,-82,60,0,00,102,90,-81,93,0,00,102,43,-81,93,0,00,90,00
24613,1,27,1,47,-9,90,1,47,1,18,-82,60,0,00,102,90,-82,03,0,00,102,50,-82,03,0,00,90,00
24629,1,27,1,47,-9,90,1,47,1,18,-82,60,0,00,102,90,-82,12,0,00,102,56,-82,12,0,00,90,00
24644,1,27,1,37,-9,80,1,47,1,08,-75,60,0,00,102,90,-81,14,0,00,102,61,-81,14,0,00,90,00
24675,1,27,1,37,-9,90,1,47,1,08,-75,60,0,00,102,90,-80,31,0,00,102,65,-80,31,0,00,90,00
24698,1,08,1,47,-9,90,1,28,1,18,-82,60,0,00,89,60,-80,65,0,00,100,70,-80,65,0,00,90,00
24724,1,08,1,47,-9,90,1,28,1,18,-82,60,0,00,89,60,-80,95,0,00,99,03,-80,95,0,00,90,00
24751,1,08,1,47,-9,90,1,28,1,18,-82,60,0,00,89,60,-81,19,0,00,97,62,-81,19,0,00,90,00
24771,0,59,0,20,-25,68,0,79,-0,09,6,30,0,00,55,30,-68,07,0,00,91,27,-68,07,0,00,90,00
24793,0,59,0,20,-9,80,0,79,-0,09,6,30,0,00,55,30,-56,91,0,00,85,87,-56,91,0,00,85,87
24815,0,88,1,37,-9,80,1,08,1,08,-75,60,0,00,75,60,-59,72,0,00,84,33,-59,72,0,00,84,33
24839,0,88,1,37,-9,80,1,08,1,08,-75,60,0,00,75,60,-62,10,0,00,83,02,-62,10,0,00,83,02
24858,0,88,1,18,-10,09,1,08,0,89,-62,30,0,00,75,60,-62,13,0,00,81,91,-62,13,0,00,81,91
24874,0,59,1,18,-10,09,0,79,0,89,-62,30,0,00,55,30,-62,16,0,00,77,92,-62,16,0,00,77,92
24898,0,59,1,08,-10,19,0,79,0,79,-55,30,0,00,55,30,-61,13,0,00,74,53,-61,13,0,00,74,53
24921,0,59,1,08,-10,19,0,79,0,79,-55,30,0,00,55,30,-60,25,0,00,71,64,-60,25,0,00,71,64
24940,0,59,1,08,-16,66,0,79,0,79,-55,30,0,00,55,30,-59,51,0,00,69,19,-59,51,0,00,69,19
24960,-2,16,0,49,-16,66,-1,96,0,20,-14,00,0,00,-137,20,-52,68,0,00,38,23,-52,68,0,00,38,23
24983,0,59,1,37,-10,78,0,79,1,08,-75,60,0,00,55,30,-56,12,0,00,40,79,-56,12,0,00,40,79
25003,0,59,1,37,-10,00,0,79,1,08,-75,60,0,00,55,30,-59,04,0,00,42,97,-59,04,0,00,42,97
25027,-0,29,0,10,-10,00,-0,09,-0,19,13,30,0,00,-6,30,-48,19,0,00,35,58,-48,19,0,00,35,58
25047,-0,29,0,10,-10,00,-0,09,-0,19,13,30,0,00,-6,30,-38,97,0,00,29,30,-38,97,0,00,29,30
25066,-0,29,0,29,-10,19,-0,09,0,00,-0,00,0,00,-6,30,-33,12,0,00,23,96,-33,12,0,00,23,96
25085,-0,20,0,29,-10,19,0,00,0,00,-0,00,0,00,0,00,-28,15,0,00,20,36,-28,15,0,00,20,36
25102,-0,20,0,29,-10,19,0,00,0,00,-0,00,0,00,0,00,-23,93,0,00,17,31,-23,93,0,00,17,31
25118,-0,20,0,29,-10,19,0,00,0,00,-0,00,0,00,0,00,-20,34,0,00,14,71,-20,34,0,00,14,71
25133,-0,20,0,29,-10,19,0,00,0,00,-0,00,0,00,0,00,-17,29,0,00,12,51,-17,29,0,00,12,51
25149,-0,20,0,29,-10,00,0,00,0,00,-0,00,0,00,0,00,-14,70,0,00,10,63,-14,70,0,00,10,63
25167,-0,20,0,29,-10,00,0,00,0,00,-0,00,0,00,0,00,-12,49,0,00,9,04,-12,49,0,00,9,04
25183,-0,20,0,29,-10,09,0,00,0,00,-0,00,0,00,0,00,-10,62,0,00,7,68,-10,62,0,00,7,68
25199,0,00,0,39,-10,09,0,20,0,10,-7,00,0,00,14,00,-10,08,0,00,8,63,-10,08,0,00,8,63
25215,0,00,0,49,-10,19,0,20,0,20,-14,00,0,00,14,00,-10,66,0,00,9,43,-10,66,0,00,9,43
25231,0,00,0,49,-10,19,0,20,0,20,-14,00,0,00,14,00,-11,16,0,00,10,12,-11,16,0,00,10,12
25247,0,00,0,49,-10,19,0,20,0,20,-14,00,0,00,14,00,-11,59,0,00,10,70,-11,59,0,00,10,70
25263,0,00,0,49,-10,19,0,20,0,20,-14,00,0,00,14,00,-11,95,0,00,11,20,-11,95,0,00,11,20
25278,-0,29,0,39,-10,29,-0,09,0,10,-7,00,0,00,-6,30,-11,21,0,00,8,57,-11,21,0,00,8,57
25294,-0,29,0,39,-10,29,-0,09,0,10,-7,00,0,00,-6,30,-10,58,0,00,6,34,-10,58,0,00,6,34
25310,-0,20,0,78,-10,00,0,00,0,49,-34,30,0,00,0,00,-14,14,0,00,5,39,-14,14,0,00,5,39
25326,-0,20,0,78,-10,00,0,00,0,49,-34,30,0,00,0,00,-17,16,0,00,4,58,-17,16,0,00,4,58
25342,-0,20,0,78,-10,00,0,00,0,49,-34,30,0,00,0,00,-19,73,0,00,3,89,-19,73,0,00,3,89
25358,-0,20,0,78,-9,80,0,00,0,49,-34,30,0,00,0,00,-21,92,0,00,3,31,-21,92,0,00,3,31
25374,-0,20,0,10,-10,00,0,00,-0,19,13,30,0,00,0,00,-16,63,0,00,2,81,-16,63,0,00,2,81
25390,-0,20,0,10,-10,19,0,00,-0,19,13,30,0,00,0,00,-12,14,0,00,2,39,-12,14,0,00,2,39
25406,0,29,0,49,-10,19,0,49,0,20,-14,00,0,00,34,30,-12,42,0,00,7,18,-12,42,0,00,7,18
25424,0,29,0,29,-10,19,0,49,0,00,-0,00,0,00,34,30,-10,56,0,00,11,25,-10,56,0,00,11,25
25451,0,00,0,29,-10,19,0,20,0,00,-0,00,0,00,14,00,-8,98,0,00,11,66,-8,98,0,00,11,66
25467,0,00,0,29,-10,19,0,20,0,00,-0,00,0,00,14,00,-7,63,0,00,12,01,-7,63,0,00,12,01
25483,0,00,0,39,-10,09,0,20,0,10,-7,00,0,00,14,00,-7,53,0,00,12,31,-7,53,0,00,12,31
25499,-0,20,0,20,-10,09,0,00,-0,09,6,30,0,00,0,00,-5,46,0,00,10,46,-5,46,0,00,10,46
25515,-0,20,0,29,-10,19,0,00,0,00,-0,00,0,00,0,00,-4,64,0,00,8,89,-4,64,0,00,8,89
25532,0,00,0,29,-10,19,0,20,0,00,-0,00,0,00,14,00,-3,94,0,00,9,66,-3,94,0,00,9,66
25548,0,00,0,29,-10,19,0,20,0,00,-0,00,0,00,14,00,-3,35,0,00,10,31,-3,35,0,00,10,31
25564,0,00,0,29,-10,19,0,20,0,00,-0,00,0,00,14,00,-2,85,0,00,10,86,-2,85,0,00,10,86
25585,-0,20,0,29,-10,19,0,00,0,00,-0,00,0,00,0,00,-2,42,0,00,9,23,-2,42,0,00,9,23
25601,-0,20,0,29,-10,19,0,00,0,00,-0,00,0,00,0,00,-2,06,0,00,7,85,-2,06,0,00,7,85
25617,0,00,0,29,-10,19,0,20,0,00,-0,00,0,00,14,00,-1,75,0,00,8,77,-1,75,0,00,8,77
25632,0,00,0,29,-10,19,0,20,0,00,-0,00,0,00,14,00,-1,49,0,00,9,56,-1,49,0,00,9,56
25647,0,00,0,29,-10,19,0,20,0,00,-0,00,0,00,14,00,-1,26,0,00,10,22,-1,26,0,00,10,22
25664,0,00,0,29,-10,19,0,20,0,00,-0,00,0,00,14,00,-1,07,0,00,10,79,-1,07,0,00,10,79
25680,0,00,0,29,-10,19,0,20,0,00,-0,00,0,00,14,00,-0,91,0,00,11,27,-0,91,0,00,11,27
25696,0,00,0,39,-10,09,0,20,0,10,-7,00,0,00,14,00,-1,83,0,00,11,68,-1,83,0,00,11,68
25711,-0,20,0,39,-10,09,0,00,0,10,-7,00,0,00,0,00,-2,60,0,00,9,93,-2,60,0,00,9,93
25729,-0,20,0,29,-10,19,0,00,0,00,-0,00,0,00,0,00,-2,21,0,00,8,44,-2,21,0,00,8,44
25745,-0,20,0,29,-10,19,0,00,0,00,-0,00,0,00,0,00,-1,88,0,00,7,17,-1,88,0,00,7,17
25761,-0,20,0,29,-10,19,0,00,0,00,-0,00,0,00,0,00,-1,60,0,00,6,10,-1,60,0,00,6,10
25778,-0,20,0,29,-10,09,0,00,0,00,-0,00,0,00,0,00,-1,36,0,00,5,18,-1,36,0,00,5,18
25796,0,00,0,29,-10,19,0,20,0,00,-0,00,0,00,14,00,-1,15,0,00,6,51,-1,15,0,00,6,51
25817,0,00,0,39,-10,09,0,20,0,10,-7,00,0,00,14,00,-2,03,0,00,7,63,-2,03,0,00,7,63
25833,0,00,0,39,-10,09,0,20,0,10,-7,00,0,00,14,00,-2,78,0,00,8,58,-2,78,0,00,8,58
25849,0,00,0,39,-10,09,0,20,0,10,-7,00,0,00,14,00,-3,41,0,00,9,40,-3,41,0,00,9,40
25868,0,00,0,39,-10,09,0,20,0,10,-7,00,0,00,14,00,-3,95,0,00,10,09,-3,95,0,00,10,09
25883,-0,20,0,39,-10,09,0,00,0,10,-7,00,0,00,0,00,-4,41,0,00,8,57,-4,41,0,00,8,57
25899,-0,20,0,39,-10,09,0,00,0,10,-7,00,0,00,0,00,-4,80,0,00,7,29,-4,80,0,00,7,29
25917,-0,20,0,39,-10,09,0,00,0,10,-7,00,0,00,0,00,-5,13,0,00,6,20,-5,13,0,00,6,20
25933,-0,20,0,39,-10,09,0,00,0,10,-7,00,0,00,0,00,-5,41,0,00,5,27,-5,41,0,00,5,27
25949,-0,20,0,39,-10,09,0,00,0,10,-7,00,0,00,0,00,-5,65,0,00,4,48,-5,65,0,00,4,48
25965,-0,20,0,39,-10,09,0,00,0,10,-7,00,0,00,0,00,-5,85,0,00,3,80,-5,85,0,00,3,80
25980,-0,20,0,39,-10,09,0,00,0,10,-7,00,0,00,0,00,-6,02,0,00,3,23,-6,02,0,00,3,23
25996,-0,20,0,39,-10,09,0,00,0,10,-7,00,0,00,0,00,-6,17,0,00,2,75,-6,17,0,00,2,75
26016,-0,20,0,39,-10,09,0,00,0,10,-7,00,0,00,0,00,-6,29,0,00,2,34,-6,29,0,00,2,34
26031,-0,20,0,39,-10,09,0,00,0,10,-7,00,0,00,0,00,-6,40,0,00,1,99,-6,40,0,00,1,99
