Time,RawAccelX,RawAccelY,RawAccelZ,CalibRobotX,CalibRobotY,TargetModelPitch(X),TargetModelYaw(Y),TargetModelRoll(Z),CurrentModelPitch(X),CurrentModelYaw(Y),CurrentModelRoll(Z),ClampedModelPitch(X),ClampedModelYaw(Y),ClampedModelRoll(Z)
613,0,00,0,29,-10,19,0,20,-0,10,7,00,0,00,14,00,1,05,0,00,2,10,1,05,0,00,2,10
690,0,00,0,29,-10,09,0,20,-0,10,7,00,0,00,14,00,1,94,0,00,3,89,1,94,0,00,3,89
807,0,00,0,39,-10,09,0,20,0,00,-0,00,0,00,14,00,1,65,0,00,5,40,1,65,0,00,5,40
858,-0,20,0,39,-10,09,0,00,0,00,-0,00,0,00,0,00,1,40,0,00,4,59,1,40,0,00,4,59
904,0,00,0,39,-10,09,0,20,0,00,-0,00,0,00,14,00,1,19,0,00,6,00,1,19,0,00,6,00
953,-0,20,0,39,-10,19,0,00,0,00,-0,00,0,00,0,00,1,01,0,00,5,10,1,01,0,00,5,10
1004,0,00,0,39,-10,09,0,20,0,00,-0,00,0,00,14,00,0,86,0,00,6,44,0,86,0,00,6,44
1052,-0,20,0,29,-10,19,0,00,-0,10,7,00,0,00,0,00,1,78,0,00,5,47,1,78,0,00,5,47
1107,0,00,0,39,-10,09,0,20,0,00,-0,00,0,00,14,00,1,52,0,00,6,75,1,52,0,00,6,75
1159,-0,20,0,39,-10,09,0,00,0,00,-0,00,0,00,0,00,1,29,0,00,5,74,1,29,0,00,5,74
1205,0,00,0,39,-10,09,0,20,0,00,-0,00,0,00,14,00,1,09,0,00,6,98,1,09,0,00,6,98
1243,-0,20,0,29,-10,19,0,00,-0,10,7,00,0,00,0,00,1,98,0,00,5,93,1,98,0,00,5,93
1287,-0,20,0,29,-10,09,0,00,-0,10,7,00,0,00,0,00,2,73,0,00,5,04,2,73,0,00,5,04
1339,0,00,0,29,-10,19,0,20,-0,10,7,00,0,00,14,00,3,37,0,00,6,39,3,37,0,00,6,39
1387,-0,20,0,39,-10,09,0,00,0,00,-0,00,0,00,0,00,2,87,0,00,5,43,2,87,0,00,5,43
1487,-0,20,0,39,-10,09,0,00,0,00,-0,00,0,00,0,00,2,44,0,00,4,61,2,44,0,00,4,61
1551,-0,20,0,29,-10,19,0,00,-0,10,7,00,0,00,0,00,3,12,0,00,3,92,3,12,0,00,3,92
1613,-0,20,0,29,-10,19,0,00,-0,10,7,00,0,00,0,00,3,70,0,00,3,33,3,70,0,00,3,33
1708,0,00,0,29,-10,09,0,20,-0,10,7,00,0,00,14,00,4,20,0,00,4,93,4,20,0,00,4,93
1789,0,00,0,29,-10,09,0,20,-0,10,7,00,0,00,14,00,4,62,0,00,6,29,4,62,0,00,6,29
1837,-0,20,0,29,-10,19,0,00,-0,10,7,00,0,00,0,00,4,98,0,00,5,35,4,98,0,00,5,35
1904,-0,20,0,29,-10,19,0,00,-0,10,7,00,0,00,0,00,5,28,0,00,4,55,5,28,0,00,4,55
1935,-0,20,0,29,-10,00,0,00,-0,10,7,00,0,00,0,00,5,54,0,00,3,86,5,54,0,00,3,86
1967,-0,20,0,29,-10,19,0,00,-0,10,7,00,0,00,0,00,5,76,0,00,3,29,5,76,0,00,3,29
2004,-0,20,0,39,-10,09,0,00,0,00,-0,00,0,00,0,00,4,89,0,00,2,79,4,89,0,00,2,79
2035,-0,20,0,39,-10,09,0,00,0,00,-0,00,0,00,0,00,4,16,0,00,2,37,4,16,0,00,2,37
2073,-0,20,0,29,-10,19,0,00,-0,10,7,00,0,00,0,00,4,59,0,00,2,02,4,59,0,00,2,02
2104,0,00,0,29,-10,19,0,20,-0,10,7,00,0,00,14,00,4,95,0,00,3,81,4,95,0,00,3,81
2137,0,00,0,39,-10,09,0,20,0,00,-0,00,0,00,14,00,4,21,0,00,5,34,4,21,0,00,5,34
2175,0,00,0,29,-10,19,0,20,-0,10,7,00,0,00,14,00,4,62,0,00,6,64,4,62,0,00,6,64
2215,-0,20,0,39,-10,19,0,00,0,00,-0,00,0,00,0,00,3,93,0,00,5,65,3,93,0,00,5,65
2249,0,00,0,29,-10,19,0,20,-0,10,7,00,0,00,14,00,4,39,0,00,6,90,4,39,0,00,6,90
2279,0,00,0,39,-10,09,0,20,0,00,-0,00,0,00,14,00,3,73,0,00,7,96,3,73,0,00,7,96
2316,-0,20,0,29,-10,19,0,00,-0,10,7,00,0,00,0,00,4,22,0,00,6,77,4,22,0,00,6,77
2372,0,00,0,29,-10,19,0,20,-0,10,7,00,0,00,14,00,4,64,0,00,7,85,4,64,0,00,7,85
2452,0,00,0,29,-10,09,0,20,-0,10,7,00,0,00,14,00,4,99,0,00,8,78,4,99,0,00,8,78
2496,0,00,0,39,-10,09,0,20,0,00,-0,00,0,00,14,00,4,24,0,00,9,56,4,24,0,00,9,56
2544,0,00,0,39,-9,80,0,20,0,00,-0,00,0,00,14,00,3,61,0,00,10,23,3,61,0,00,10,23
2617,-2,45,2,25,-9,11,-2,25,1,86,-130,20,0,00,-157,50,-16,46,0,00,-14,93,-16,46,0,00,-14,93
2655,1,57,1,27,-10,00,1,77,0,88,-61,60,0,00,123,90,-23,23,0,00,5,89,-23,23,0,00,5,89
2683,-1,96,-1,76,-9,90,-1,76,-2,15,150,50,0,00,-123,20,2,83,0,00,-13,47,2,83,0,00,-13,47
2710,-1,08,0,49,-11,86,-0,88,0,10,-7,00,0,00,-61,60,1,35,0,00,-20,69,1,35,0,00,-20,69
2745,-1,08,0,49,-11,86,-0,88,0,10,-7,00,0,00,-61,60,0,10,0,00,-26,83,0,10,0,00,-26,83
2781,-1,08,0,49,-11,86,-0,88,0,10,-7,00,0,00,-61,60,-0,97,0,00,-32,04,-0,97,0,00,-32,04
2825,-0,20,0,10,-9,41,0,00,-0,29,20,30,0,00,0,00,2,22,0,00,-27,24,2,22,0,00,-27,24
2864,-1,27,0,10,-10,58,-1,07,-0,29,20,30,0,00,-74,90,4,94,0,00,-34,39,4,94,0,00,-34,39
2897,-0,20,0,78,-10,78,0,00,0,39,-27,30,0,00,0,00,0,10,0,00,-29,23,0,10,0,00,-29,23
2931,-0,49,0,88,-12,05,-0,29,0,49,-34,30,0,00,-20,30,-5,06,0,00,-27,89,-5,06,0,00,-27,89
2964,-0,88,0,78,-12,05,-0,68,0,39,-27,30,0,00,-47,60,-8,40,0,00,-30,85,-8,40,0,00,-30,85
2991,-0,88,0,78,-10,09,-0,68,0,39,-27,30,0,00,-47,60,-11,23,0,00,-33,36,-11,23,0,00,-33,36
3016,0,88,0,69,-10,09,1,08,0,30,-21,00,0,00,75,60,-12,70,0,00,-17,02,-12,70,0,00,-17,02
3043,0,20,0,00,-10,29,0,40,-0,39,27,30,0,00,28,00,-6,70,0,00,-10,26,-6,70,0,00,-10,26
3073,1,27,0,78,-12,05,1,47,0,39,-27,30,0,00,102,90,-9,79,0,00,6,71,-9,79,0,00,6,71
3100,1,67,-1,86,-8,04,1,87,-2,25,157,50,0,00,130,90,15,31,0,00,25,34,15,31,0,00,25,34
3129,5,10,0,78,-5,98,5,30,0,39,-27,30,0,00,371,00,8,91,0,00,77,19,8,91,0,00,77,19
3176,5,10,0,29,-11,56,5,30,-0,10,7,00,0,00,371,00,8,63,0,00,121,26,8,63,0,00,90,00
3221,4,61,0,88,-8,53,4,81,0,49,-34,30,0,00,336,70,2,19,0,00,153,58,2,19,0,00,90,00
3255,3,72,0,98,-9,60,3,92,0,59,-41,30,0,00,274,40,-4,33,0,00,171,70,-4,33,0,00,90,00
3281,3,43,0,78,-12,84,3,63,0,39,-27,30,0,00,254,10,-7,78,0,00,184,06,-7,78,0,00,90,00
3308,3,23,1,08,-14,80,3,43,0,69,-48,30,0,00,240,10,-13,86,0,00,192,47,-13,86,0,00,90,00
3330,2,35,2,35,-15,97,2,55,1,96,-137,20,0,00,178,50,-32,36,0,00,190,37,-32,36,0,00,90,00
3357,2,35,2,65,-17,35,2,55,2,26,-158,20,0,00,178,50,-51,24,0,00,188,59,-51,24,0,00,90,00
3390,1,08,2,65,-17,35,1,28,2,26,-158,20,0,00,89,60,-67,28,0,00,173,74,-67,28,0,00,90,00
3414,1,08,2,16,-17,93,1,28,1,77,-123,90,0,00,89,60,-75,77,0,00,161,12,-75,77,0,00,90,00
3439,1,27,2,16,-17,54,1,47,1,77,-123,90,0,00,102,90,-82,99,0,00,152,39,-82,99,0,00,90,00
3469,2,35,3,04,-17,54,2,55,2,65,-185,50,0,00,178,50,-98,37,0,00,156,30,-90,00,0,00,90,00
3519,0,00,1,96,-6,37,0,20,1,57,-109,90,0,00,14,00,-100,10,0,00,134,96,-90,00,0,00,90,00
3556,0,20,-2,65,0,78,0,40,-3,04,212,80,0,00,28,00,-53,16,0,00,118,91,-53,16,0,00,90,00
3591,-0,20,-4,61,3,63,0,00,-5,00,350,00,0,00,0,00,7,31,0,00,101,08,7,31,0,00,90,00
3628,-1,67,-7,35,2,74,-1,47,-7,74,541,80,0,00,-102,90,87,48,0,00,70,48,87,48,0,00,70,48
3666,-1,96,-10,19,-1,27,-1,76,-10,58,740,60,0,00,-123,20,185,45,0,00,41,43,90,00,0,00,41,43
3699,2,35,-10,00,-3,53,2,55,-10,39,727,30,0,00,178,50,266,73,0,00,61,99,90,00,0,00,61,99
3728,-0,29,-9,11,-8,04,-0,09,-9,50,665,00,0,00,-6,30,326,47,0,00,51,75,90,00,0,00,51,75
3757,0,59,-11,37,-5,49,0,79,-11,76,823,20,0,00,55,30,400,98,0,00,52,28,90,00,0,00,52,28
3780,2,74,-12,05,-0,78,2,94,-12,44,870,80,0,00,205,80,471,45,0,00,75,31,90,00,0,00,75,31
3802,2,74,-12,05,-0,78,2,94,-12,44,870,80,0,00,205,80,531,35,0,00,94,88,90,00,0,00,90,00
3821,2,74,-12,05,-0,78,2,94,-12,44,870,80,0,00,205,80,582,27,0,00,111,52,90,00,0,00,90,00
3844,0,78,-11,96,4,70,0,98,-12,35,864,50,0,00,68,60,624,61,0,00,105,08,90,00,0,00,90,00
3879,-0,88,-12,35,4,12,-0,68,-12,74,891,80,0,00,-47,60,664,68,0,00,82,18,90,00,0,00,82,18
3910,-2,35,-9,80,-0,10,-2,15,-10,19,713,30,0,00,-150,50,671,98,0,00,47,28,90,00,0,00,47,28
3938,-1,67,-8,43,0,59,-1,47,-8,82,617,40,0,00,-102,90,663,79,0,00,24,75,90,00,0,00,24,75
3964,-1,67,-8,43,0,59,-1,47,-8,82,617,40,0,00,-102,90,656,83,0,00,5,60,90,00,0,00,5,60
3983,-1,67,-8,13,3,92,-1,47,-8,52,596,40,0,00,-102,90,647,77,0,00,-10,67,90,00,0,00,-10,67
4006,-4,02,-8,13,3,92,-3,82,-8,52,596,40,0,00,-267,40,640,06,0,00,-49,18,90,00,0,00,-49,18
4026,-2,74,-6,86,5,98,-2,54,-7,25,507,50,0,00,-177,80,620,18,0,00,-68,47,90,00,0,00,-68,47
4047,-0,29,-5,59,5,78,-0,09,-5,98,418,60,0,00,-6,30,589,94,0,00,-59,15,90,00,0,00,-59,15
4068,-0,29,-5,59,5,49,-0,09,-5,98,418,60,0,00,-6,30,564,24,0,00,-51,22,90,00,0,00,-51,22
4087,0,29,-4,21,5,49,0,49,-4,60,322,00,0,00,34,30,527,90,0,00,-38,39,90,00,0,00,-38,39
4106,0,29,-1,47,7,84,0,49,-1,86,130,20,0,00,34,30,468,25,0,00,-27,49,90,00,0,00,-27,49
4125,-0,88,-1,47,7,84,-0,68,-1,86,130,20,0,00,-47,60,417,54,0,00,-30,51,90,00,0,00,-30,51
4154,-1,37,-1,86,10,58,-1,17,-2,25,157,50,0,00,-81,90,378,53,0,00,-38,21,90,00,0,00,-38,21
4179,2,74,-4,80,16,76,2,94,-5,19,363,30,0,00,205,80,376,25,0,00,-1,61,90,00,0,00,-1,61
4204,4,51,-7,84,17,54,4,71,-8,23,576,10,0,00,329,70,406,23,0,00,48,08,90,00,0,00,48,08
4225,4,51,-7,84,17,54,4,71,-8,23,576,10,0,00,329,70,431,71,0,00,90,33,90,00,0,00,90,00
4244,4,51,-7,84,17,54,4,71,-8,23,576,10,0,00,329,70,453,37,0,00,126,23,90,00,0,00,90,00
4275,0,88,-7,55,14,21,1,08,-7,94,555,80,0,00,75,60,468,73,0,00,118,64,90,00,0,00,90,00
4309,-1,27,-4,90,11,27,-1,07,-5,29,370,30,0,00,-74,90,453,97,0,00,89,61,90,00,0,00,89,61
4337,-0,49,-5,98,11,27,-0,29,-6,37,445,90,0,00,-20,30,452,76,0,00,73,12,90,00,0,00,73,12
4361,1,96,-5,98,15,29,2,16,-6,37,445,90,0,00,151,20,451,73,0,00,84,83,90,00,0,00,84,83
4381,-3,53,-1,08,10,98,-3,33,-1,47,102,90,0,00,-233,10,399,40,0,00,37,14,90,00,0,00,37,14
4401,-3,53,-1,08,9,80,-3,33,-1,47,102,90,0,00,-233,10,354,93,0,00,-3,39,90,00,0,00,-3,39
4425,-8,04,-0,39,9,80,-7,84,-0,78,54,60,0,00,-548,80,309,88,0,00,-85,20,90,00,0,00,-85,20
4451,-14,31,-2,35,5,29,-14,11,-2,74,191,80,0,00,-987,70,292,17,0,00,-220,58,90,00,0,00,-90,00
4468,-13,23,-2,55,-3,43,-13,03,-2,94,205,80,0,00,-912,10,279,21,0,00,-324,31,90,00,0,00,-90,00
4506,-10,98,-2,16,-9,21,-10,78,-2,55,178,50,0,00,-754,60,264,11,0,00,-388,85,90,00,0,00,-90,00
4536,-9,70,-5,78,-10,49,-9,50,-6,17,431,90,0,00,-665,00,289,27,0,00,-430,27,90,00,0,00,-90,00
4568,-11,07,-5,88,-11,96,-10,87,-6,27,438,90,0,00,-760,90,311,72,0,00,-479,87,90,00,0,00,-90,00
4596,-10,49,-7,25,-9,11,-10,29,-7,64,534,80,0,00,-720,30,345,18,0,00,-515,93,90,00,0,00,-90,00
4631,-9,21,-6,66,-10,29,-9,01,-7,05,493,50,0,00,-630,70,367,43,0,00,-533,15,90,00,0,00,-90,00
4653,-9,21,-6,66,-10,29,-9,01,-7,05,493,50,0,00,-630,70,386,34,0,00,-547,78,90,00,0,00,-90,00
4673,-9,21,-6,66,-7,84,-9,01,-7,05,493,50,0,00,-630,70,402,41,0,00,-560,22,90,00,0,00,-90,00
4692,-8,04,-6,66,-7,84,-7,84,-7,05,493,50,0,00,-548,80,416,08,0,00,-558,51,90,00,0,00,-90,00
4716,-6,96,-6,57,-6,08,-6,76,-6,96,487,20,0,00,-473,20,426,74,0,00,-545,71,90,00,0,00,-90,00
4754,-2,74,-5,49,1,67,-2,54,-5,88,411,60,0,00,-177,80,424,47,0,00,-490,52,90,00,0,00,-90,00
4784,-2,74,-5,49,1,67,-2,54,-5,88,411,60,0,00,-177,80,422,54,0,00,-443,61,90,00,0,00,-90,00
4809,-1,27,-5,98,7,35,-1,07,-6,37,445,90,0,00,-74,90,426,05,0,00,-388,31,90,00,0,00,-90,00
4834,-0,20,-7,15,10,49,0,00,-7,54,527,80,0,00,0,00,441,31,0,00,-330,06,90,00,0,00,-90,00
4853,-0,20,-9,02,11,76,0,00,-9,41,658,70,0,00,0,00,473,92,0,00,-280,55,90,00,0,00,-90,00
4871,1,37,-9,02,11,76,1,57,-9,41,658,70,0,00,109,90,501,63,0,00,-221,98,90,00,0,00,-90,00
4890,2,94,-7,15,19,60,3,14,-7,54,527,80,0,00,219,80,505,56,0,00,-155,72,90,00,0,00,-90,00
4909,2,94,-7,15,19,40,3,14,-7,54,527,80,0,00,219,80,508,90,0,00,-99,39,90,00,0,00,-90,00
4930,-6,47,-3,82,19,40,-6,27,-4,21,294,70,0,00,-438,90,476,77,0,00,-150,32,90,00,0,00,-90,00
4949,-10,49,0,00,15,58,-10,29,-0,39,27,30,0,00,-720,30,409,35,0,00,-235,81,90,00,0,00,-90,00
4969,-10,49,0,00,10,29,-10,29,-0,39,27,30,0,00,-720,30,352,04,0,00,-308,49,90,00,0,00,-90,00
4987,-19,80,0,00,10,29,-19,60,-0,39,27,30,0,00,-1372,00,303,33,0,00,-468,01,90,00,0,00,-90,00
5006,-19,80,2,16,-8,62,-19,60,1,77,-123,90,0,00,-1372,00,239,24,0,00,-603,61,90,00,0,00,-90,00
5028,-19,80,2,16,-13,13,-19,60,1,77,-123,90,0,00,-1372,00,184,77,0,00,-718,87,90,00,0,00,-90,00
5057,-14,80,0,20,-13,13,-14,60,-0,19,13,30,0,00,-1022,00,159,05,0,00,-764,34,90,00,0,00,-90,00
5080,-8,04,-2,25,-14,41,-7,84,-2,64,184,80,0,00,-548,80,162,91,0,00,-732,01,90,00,0,00,-90,00
5102,-8,04,-2,25,-14,41,-7,84,-2,64,184,80,0,00,-548,80,166,20,0,00,-704,53,90,00,0,00,-90,00
5121,-8,04,-2,25,-13,43,-7,84,-2,64,184,80,0,00,-548,80,168,99,0,00,-681,17,90,00,0,00,-90,00
5141,-7,84,-3,82,-13,43,-7,64,-4,21,294,70,0,00,-534,80,187,84,0,00,-659,21,90,00,0,00,-90,00
5177,-7,45,-5,49,-10,98,-7,25,-5,88,411,60,0,00,-507,50,221,41,0,00,-636,46,90,00,0,00,-90,00
5205,-5,68,-7,25,-7,64,-5,48,-7,64,534,80,0,00,-383,60,268,42,0,00,-598,53,90,00,0,00,-90,00
5227,-4,90,-7,55,-7,15,-4,70,-7,94,555,80,0,00,-329,00,311,52,0,00,-558,10,90,00,0,00,-90,00
5249,-5,29,-7,06,-7,94,-5,09,-7,45,521,50,0,00,-356,30,343,02,0,00,-527,83,90,00,0,00,-90,00
5276,-5,29,-6,76,-8,92,-5,09,-7,15,500,50,0,00,-356,30,366,64,0,00,-502,10,90,00,0,00,-90,00
5303,-5,68,-6,76,-8,43,-5,48,-7,15,500,50,0,00,-383,60,386,72,0,00,-484,32,90,00,0,00,-90,00
5326,-5,39,-6,86,-8,43,-5,19,-7,25,507,50,0,00,-363,30,404,84,0,00,-466,17,90,00,0,00,-90,00
5346,-5,10,-8,04,-6,27,-4,90,-8,43,590,10,0,00,-343,00,432,63,0,00,-447,70,90,00,0,00,-90,00
5379,-4,31,-8,04,-6,27,-4,11,-8,43,590,10,0,00,-287,70,456,25,0,00,-423,70,90,00,0,00,-90,00
5411,-3,23,-7,74,-5,88,-3,03,-8,13,569,10,0,00,-212,10,473,18,0,00,-391,96,90,00,0,00,-90,00
5442,-1,27,-7,15,-5,39,-1,07,-7,54,527,80,0,00,-74,90,481,37,0,00,-344,40,90,00,0,00,-90,00
5468,4,31,-6,96,-2,25,4,51,-7,35,514,50,0,00,315,70,486,34,0,00,-245,38,90,00,0,00,-90,00
5491,8,33,-7,25,0,49,8,53,-7,64,534,80,0,00,597,10,493,61,0,00,-119,01,90,00,0,00,-90,00
5510,8,33,-7,25,0,49,8,53,-7,64,534,80,0,00,597,10,499,79,0,00,-11,59,90,00,0,00,-11,59
5530,8,33,-7,25,0,49,8,53,-7,64,534,80,0,00,597,10,505,04,0,00,79,71,90,00,0,00,79,71
5551,7,06,2,06,1,37,7,26,1,67,-116,90,0,00,508,20,411,75,0,00,143,98,90,00,0,00,90,00
5569,7,06,2,06,-25,77,7,26,1,67,-116,90,0,00,508,20,332,45,0,00,198,62,90,00,0,00,90,00
5585,-19,80,0,00,-25,77,-19,60,-0,39,27,30,0,00,-1372,00,286,68,0,00,-36,98,90,00,0,00,-36,98
5602,-19,80,0,00,-22,34,-19,60,-0,39,27,30,0,00,-1372,00,247,77,0,00,-237,23,90,00,0,00,-90,00
5622,-19,80,4,12,-22,34,-19,60,3,73,-261,10,0,00,-1372,00,171,44,0,00,-407,45,90,00,0,00,-90,00
5664,-12,05,1,96,-3,53,-11,85,1,57,-109,90,0,00,-829,50,129,24,0,00,-470,75,90,00,0,00,-90,00
5691,-4,21,-1,27,-0,88,-4,01,-1,66,116,20,0,00,-280,70,127,28,0,00,-442,25,90,00,0,00,-90,00
5719,0,59,-1,08,-0,20,0,79,-1,47,102,90,0,00,55,30,123,63,0,00,-367,61,90,00,0,00,-90,00
5748,3,82,-3,33,0,98,4,02,-3,72,260,40,0,00,281,40,144,14,0,00,-270,26,90,00,0,00,-90,00
5783,5,29,-3,23,5,00,5,49,-3,62,253,40,0,00,384,30,160,53,0,00,-172,08,90,00,0,00,-90,00
5811,5,10,-3,43,9,90,5,30,-3,82,267,40,0,00,371,00,176,56,0,00,-90,62,90,00,0,00,-90,00
5842,6,17,-3,14,12,84,6,37,-3,53,247,10,0,00,445,90,187,14,0,00,-10,14,90,00,0,00,-10,14
5860,6,66,-3,14,12,84,6,86,-3,53,247,10,0,00,480,20,196,14,0,00,63,41,90,00,0,00,63,41
5886,15,58,-4,70,17,64,15,78,-5,09,356,30,0,00,1104,60,220,16,0,00,219,59,90,00,0,00,90,00
5910,15,58,-3,92,14,01,15,78,-4,31,301,70,0,00,1104,60,232,39,0,00,352,34,90,00,0,00,90,00
5941,8,13,-3,92,14,01,8,33,-4,31,301,70,0,00,583,10,242,79,0,00,386,96,90,00,0,00,90,00
5972,6,17,-3,82,11,27,6,37,-4,21,294,70,0,00,445,90,250,57,0,00,395,80,90,00,0,00,90,00
6002,3,43,-2,94,4,41,3,63,-3,33,233,10,0,00,254,10,247,95,0,00,374,54,90,00,0,00,90,00
6019,3,43,-2,94,-4,41,3,63,-3,33,233,10,0,00,254,10,245,73,0,00,356,48,90,00,0,00,90,00
6050,-4,80,-1,18,-9,02,-4,60,-1,57,109,90,0,00,-322,00,225,35,0,00,254,70,90,00,0,00,90,00
6083,-7,84,-0,49,-13,92,-7,64,-0,88,61,60,0,00,-534,80,200,79,0,00,136,28,90,00,0,00,90,00
6118,-12,54,0,49,-14,11,-12,34,0,10,-7,00,0,00,-863,80,169,62,0,00,-13,73,90,00,0,00,-13,73
6139,-8,92,0,49,-12,25,-8,72,0,10,-7,00,0,00,-610,40,143,13,0,00,-103,23,90,00,0,00,-90,00
6156,-7,45,-0,59,-12,25,-7,25,-0,98,68,60,0,00,-507,50,131,95,0,00,-163,87,90,00,0,00,-90,00
6180,-1,27,0,49,-14,90,-1,07,0,10,-7,00,0,00,-74,90,111,11,0,00,-150,53,90,00,0,00,-90,00
6212,6,66,0,10,-17,44,6,86,-0,29,20,30,0,00,480,20,97,49,0,00,-55,92,90,00,0,00,-55,92
6230,6,66,0,10,-18,82,6,86,-0,29,20,30,0,00,480,20,85,91,0,00,24,50,85,91,0,00,24,50
6248,8,62,0,10,-18,82,8,82,-0,29,20,30,0,00,617,40,76,07,0,00,113,43,76,07,0,00,90,00
6265,8,62,-1,96,-14,99,8,82,-2,35,164,50,0,00,617,40,89,33,0,00,189,03,89,33,0,00,90,00
6282,10,00,-1,96,-14,99,10,20,-2,35,164,50,0,00,714,00,100,61,0,00,267,78,90,00,0,00,90,00
6316,10,39,-2,06,-14,41,10,59,-2,45,171,50,0,00,741,30,111,24,0,00,338,80,90,00,0,00,90,00
6348,6,47,-1,27,-13,33,6,67,-1,66,116,20,0,00,466,90,111,98,0,00,358,02,90,00,0,00,90,00
6392,6,47,-1,27,-7,15,6,67,-1,66,116,20,0,00,466,90,112,62,0,00,374,35,90,00,0,00,90,00
6425,-4,02,0,69,-2,06,-3,82,0,30,-21,00,0,00,-267,40,92,57,0,00,278,09,90,00,0,00,90,00
6450,-6,66,-2,65,7,64,-6,46,-3,04,212,80,0,00,-452,20,110,61,0,00,168,54,90,00,0,00,90,00
6468,-6,66,-2,65,10,39,-6,46,-3,04,212,80,0,00,-452,20,125,94,0,00,75,43,90,00,0,00,75,43
6485,-6,17,-6,08,10,39,-5,97,-6,47,452,90,0,00,-417,90,174,98,0,00,1,43,90,00,0,00,1,43
6502,-6,17,-6,08,5,78,-5,97,-6,47,452,90,0,00,-417,90,216,67,0,00,-61,47,90,00,0,00,-61,47
6520,-4,51,-2,45,5,78,-4,31,-2,84,198,80,0,00,-301,70,213,99,0,00,-97,50,90,00,0,00,-90,00
6547,-3,04,-3,43,5,59,-2,84,-3,82,267,40,0,00,-198,80,222,00,0,00,-112,70,90,00,0,00,-90,00
6578,-4,31,-4,41,8,62,-4,11,-4,80,336,00,0,00,-287,70,239,10,0,00,-138,95,90,00,0,00,-90,00
6594,-4,31,-5,19,9,51,-4,11,-5,58,390,60,0,00,-287,70,261,83,0,00,-161,26,90,00,0,00,-90,00
6616,-4,51,-5,19,9,51,-4,31,-5,58,390,60,0,00,-301,70,281,14,0,00,-182,33,90,00,0,00,-90,00
6644,-2,74,-5,00,8,92,-2,54,-5,39,377,30,0,00,-177,80,295,57,0,00,-181,65,90,00,0,00,-90,00
6677,-1,96,-5,19,9,31,-1,76,-5,58,390,60,0,00,-123,20,309,82,0,00,-172,88,90,00,0,00,-90,00
6709,-1,86,-5,10,9,60,-1,66,-5,49,384,30,0,00,-116,20,320,99,0,00,-164,38,90,00,0,00,-90,00
6738,-1,86,-5,10,9,60,-1,66,-5,49,384,30,0,00,-116,20,330,49,0,00,-157,15,90,00,0,00,-90,00
6755,-1,86,-4,80,8,62,-1,66,-5,19,363,30,0,00,-116,20,335,41,0,00,-151,01,90,00,0,00,-90,00
6786,-1,86,-4,80,8,62,-1,66,-5,19,363,30,0,00,-116,20,339,59,0,00,-145,79,90,00,0,00,-90,00
6804,-1,86,-4,80,8,33,-1,66,-5,19,363,30,0,00,-116,20,343,15,0,00,-141,35,90,00,0,00,-90,00
6836,-1,96,-5,39,6,37,-1,76,-5,78,404,60,0,00,-123,20,352,37,0,00,-138,63,90,00,0,00,-90,00
6866,-1,37,-6,47,6,47,-1,17,-6,86,480,20,0,00,-81,90,371,54,0,00,-130,12,90,00,0,00,-90,00
6882,-1,08,-6,47,6,47,-0,88,-6,86,480,20,0,00,-61,60,387,84,0,00,-119,84,90,00,0,00,-90,00
6898,-0,49,-6,66,0,49,-0,29,-7,05,493,50,0,00,-20,30,403,69,0,00,-104,91,90,00,0,00,-90,00
6930,-1,86,-5,59,-6,76,-1,66,-5,98,418,60,0,00,-116,20,405,93,0,00,-106,60,90,00,0,00,-90,00
6946,-1,86,-5,59,-6,76,-1,66,-5,98,418,60,0,00,-116,20,407,83,0,00,-108,04,90,00,0,00,-90,00
6963,-3,04,-5,29,-10,29,-2,84,-5,68,397,60,0,00,-198,80,406,29,0,00,-121,66,90,00,0,00,-90,00
6995,-6,37,-7,06,-13,43,-6,17,-7,45,521,50,0,00,-431,90,423,57,0,00,-168,19,90,00,0,00,-90,00
7026,-4,90,-8,33,-9,60,-4,70,-8,72,610,40,0,00,-329,00,451,60,0,00,-192,31,90,00,0,00,-90,00
7043,-4,90,-8,53,-8,33,-4,70,-8,92,624,40,0,00,-329,00,477,52,0,00,-212,82,90,00,0,00,-90,00
7075,-4,51,-9,11,-5,19,-4,31,-9,50,665,00,0,00,-301,70,505,64,0,00,-226,15,90,00,0,00,-90,00
7106,-3,43,-8,62,-5,59,-3,23,-9,01,630,70,0,00,-226,10,524,40,0,00,-226,10,90,00,0,00,-90,00
7123,-2,65,-8,62,-5,59,-2,45,-9,01,630,70,0,00,-171,50,540,34,0,00,-217,91,90,00,0,00,-90,00
7155,-2,65,-8,62,-5,59,-2,45,-9,01,630,70,0,00,-171,50,553,90,0,00,-210,95,90,00,0,00,-90,00
7186,-3,04,-7,45,-6,66,-2,84,-7,84,548,80,0,00,-198,80,553,13,0,00,-209,13,90,00,0,00,-90,00
7202,-3,04,-7,45,-6,66,-2,84,-7,84,548,80,0,00,-198,80,552,48,0,00,-207,58,90,00,0,00,-90,00
7221,-3,04,-7,45,-6,17,-2,84,-7,84,548,80,0,00,-198,80,551,93,0,00,-206,26,90,00,0,00,-90,00
7252,-3,23,-7,55,-6,37,-3,03,-7,94,555,80,0,00,-212,10,552,51,0,00,-207,14,90,00,0,00,-90,00
7287,-3,43,-7,06,-6,76,-3,23,-7,45,521,50,0,00,-226,10,547,86,0,00,-209,98,90,00,0,00,-90,00
7314,-3,82,-6,86,-6,96,-3,62,-7,25,507,50,0,00,-253,40,541,81,0,00,-216,49,90,00,0,00,-90,00
7330,-3,23,-6,86,-6,96,-3,03,-7,25,507,50,0,00,-212,10,536,66,0,00,-215,83,90,00,0,00,-90,00
7346,-3,23,-6,37,-7,74,-3,03,-6,76,473,20,0,00,-212,10,527,14,0,00,-215,27,90,00,0,00,-90,00
7380,-2,35,-6,27,-8,13,-2,15,-6,66,466,20,0,00,-150,50,518,00,0,00,-205,56,90,00,0,00,-90,00
7410,-1,96,-6,47,-8,04,-1,76,-6,86,480,20,0,00,-123,20,512,33,0,00,-193,20,90,00,0,00,-90,00
7426,-1,96,-6,47,-8,04,-1,76,-6,86,480,20,0,00,-123,20,507,51,0,00,-182,70,90,00,0,00,-90,00
7442,-1,08,-6,27,-8,92,-0,88,-6,66,466,20,0,00,-61,60,501,31,0,00,-164,54,90,00,0,00,-90,00
7462,-1,08,-6,27,-9,51,-0,88,-6,66,466,20,0,00,-61,60,496,05,0,00,-149,10,90,00,0,00,-90,00
7490,-0,20,-6,27,-10,09,0,00,-6,66,466,20,0,00,0,00,491,57,0,00,-126,73,90,00,0,00,-90,00
7507,-0,78,-6,27,-10,09,-0,58,-6,66,466,20,0,00,-40,60,487,76,0,00,-113,81,90,00,0,00,-90,00
7539,-2,16,-6,27,-7,45,-1,96,-6,66,466,20,0,00,-137,20,484,53,0,00,-117,32,90,00,0,00,-90,00
7570,-3,04,-5,88,-5,29,-2,84,-6,27,438,90,0,00,-198,80,477,69,0,00,-129,54,90,00,0,00,-90,00
7587,-3,04,-5,49,-5,98,-2,84,-5,88,411,60,0,00,-198,80,467,77,0,00,-139,93,90,00,0,00,-90,00
7619,-2,94,-5,49,-5,98,-2,74,-5,88,411,60,0,00,-191,80,459,35,0,00,-147,71,90,00,0,00,-90,00
7650,1,27,-5,68,-6,17,1,47,-6,07,424,90,0,00,102,90,454,18,0,00,-110,12,90,00,0,00,-90,00
7668,1,27,-5,68,-8,82,1,47,-6,07,424,90,0,00,102,90,449,79,0,00,-78,17,90,00,0,00,-78,17
7686,3,23,-5,88,-8,82,3,43,-6,27,438,90,0,00,240,10,448,15,0,00,-30,43,90,00,0,00,-30,43
7704,3,23,-4,90,-9,51,3,43,-5,29,370,30,0,00,240,10,436,48,0,00,10,15,90,00,0,00,10,15
7725,0,49,-4,90,-9,51,0,69,-5,29,370,30,0,00,48,30,426,55,0,00,15,87,90,00,0,00,15,87
7742,-1,67,-4,90,-7,35,-1,47,-5,29,370,30,0,00,-102,90,418,11,0,00,-1,94,90,00,0,00,-1,94
7763,-1,67,-4,12,-10,29,-1,47,-4,51,315,70,0,00,-102,90,402,75,0,00,-17,09,90,00,0,00,-17,09
7785,-0,29,-4,12,-10,29,-0,09,-4,51,315,70,0,00,-6,30,389,69,0,00,-15,47,90,00,0,00,-15,47
7803,1,27,-5,29,-9,11,1,47,-5,68,397,60,0,00,102,90,390,88,0,00,2,29,90,00,0,00,2,29
7821,1,27,-5,29,-9,80,1,47,-5,68,397,60,0,00,102,90,391,89,0,00,17,38,90,00,0,00,17,38
7842,0,78,-4,90,-9,80,0,98,-5,29,370,30,0,00,68,60,388,65,0,00,25,06,90,00,0,00,25,06
7861,1,37,-4,41,-12,54,1,57,-4,80,336,00,0,00,109,90,380,75,0,00,37,79,90,00,0,00,37,79
7892,1,37,-4,41,-7,94,1,57,-4,80,336,00,0,00,109,90,374,04,0,00,48,60,90,00,0,00,48,60
7926,-2,16,-3,04,-11,76,-1,96,-3,43,240,10,0,00,-137,20,353,95,0,00,20,73,90,00,0,00,20,73
7956,0,20,-4,21,-11,76,0,40,-4,60,322,00,0,00,28,00,349,16,0,00,21,82,90,00,0,00,21,82
7976,0,20,-4,70,-11,47,0,40,-5,09,356,30,0,00,28,00,350,23,0,00,22,75,90,00,0,00,22,75
8004,-0,20,-4,70,-11,47,0,00,-5,09,356,30,0,00,0,00,351,14,0,00,19,34,90,00,0,00,19,34
8023,-0,20,-4,70,-11,47,0,00,-5,09,356,30,0,00,0,00,351,91,0,00,16,44,90,00,0,00,16,44
8045,-3,82,-5,78,-5,59,-3,62,-6,17,431,90,0,00,-253,40,363,91,0,00,-24,04,90,00,0,00,-24,04
8061,-3,82,-5,78,-5,59,-3,62,-6,17,431,90,0,00,-253,40,374,11,0,00,-58,44,90,00,0,00,-58,44
8079,-3,82,-5,78,-5,59,-3,62,-6,17,431,90,0,00,-253,40,382,78,0,00,-87,69,90,00,0,00,-87,69
8099,-3,82,-4,41,-13,23,-3,62,-4,80,336,00,0,00,-253,40,375,76,0,00,-112,54,90,00,0,00,-90,00
8125,-2,65,-4,41,-8,72,-2,45,-4,80,336,00,0,00,-171,50,369,80,0,00,-121,39,90,00,0,00,-90,00
8155,-6,17,-7,74,-9,60,-5,97,-8,13,569,10,0,00,-417,90,399,69,0,00,-165,86,90,00,0,00,-90,00
8186,-1,86,-2,65,-9,51,-1,66,-3,04,212,80,0,00,-116,20,371,66,0,00,-158,41,90,00,0,00,-90,00
8216,-1,08,-2,65,-8,43,-0,88,-3,04,212,80,0,00,-61,60,347,83,0,00,-143,89,90,00,0,00,-90,00
8242,-0,29,-2,65,-8,72,-0,09,-3,04,212,80,0,00,-6,30,327,58,0,00,-123,25,90,00,0,00,-90,00
8258,0,59,-1,96,-8,72,0,79,-2,35,164,50,0,00,55,30,303,11,0,00,-96,47,90,00,0,00,-90,00
8276,0,59,-1,27,-7,15,0,79,-1,66,116,20,0,00,55,30,275,08,0,00,-73,70,90,00,0,00,-73,70
8296,2,35,-1,27,-7,15,2,55,-1,66,116,20,0,00,178,50,251,25,0,00,-35,87,90,00,0,00,-35,87
8314,1,96,-0,98,-8,23,2,16,-1,37,95,90,0,00,151,20,227,94,0,00,-7,81,90,00,0,00,-7,81
8332,1,96,0,10,-8,33,2,16,-0,29,20,30,0,00,151,20,196,80,0,00,16,04,90,00,0,00,16,04
8352,3,43,0,10,-8,33,3,63,-0,29,20,30,0,00,254,10,170,32,0,00,51,75,90,00,0,00,51,75
8377,3,53,0,88,-12,54,3,73,0,49,-34,30,0,00,261,10,139,63,0,00,83,15,90,00,0,00,83,15
8406,5,59,1,47,-12,05,5,79,1,08,-75,60,0,00,405,30,107,34,0,00,131,47,90,00,0,00,90,00
8432,5,59,0,29,-8,23,5,79,-0,10,7,00,0,00,405,30,92,29,0,00,172,55,90,00,0,00,90,00
8461,3,43,0,29,-8,23,3,63,-0,10,7,00,0,00,254,10,79,50,0,00,184,78,79,50,0,00,90,00
8483,3,43,-1,57,-8,43,3,63,-1,96,137,20,0,00,254,10,88,15,0,00,195,18,88,15,0,00,90,00
8502,1,86,-1,57,-8,43,2,06,-1,96,137,20,0,00,144,20,95,51,0,00,187,53,90,00,0,00,90,00
8519,1,37,-1,27,-9,31,1,57,-1,66,116,20,0,00,109,90,98,61,0,00,175,89,90,00,0,00,90,00
8549,10,49,3,43,-8,43,10,69,3,04,-212,80,0,00,748,30,51,90,0,00,261,75,51,90,0,00,90,00
8566,10,49,3,43,-8,43,10,69,3,04,-212,80,0,00,748,30,12,20,0,00,334,73,12,20,0,00,90,00
8582,3,82,2,16,-10,09,4,02,1,77,-123,90,0,00,281,40,-8,22,0,00,326,73,-8,22,0,00,90,00
8601,3,82,2,16,-9,60,4,02,1,77,-123,90,0,00,281,40,-25,57,0,00,319,93,-25,57,0,00,90,00
8620,1,08,1,76,-9,60,1,28,1,37,-95,90,0,00,89,60,-36,12,0,00,285,38,-36,12,0,00,90,00
8638,1,08,1,76,-9,60,1,28,1,37,-95,90,0,00,89,60,-45,09,0,00,256,01,-45,09,0,00,90,00
8654,1,08,1,76,-9,60,1,28,1,37,-95,90,0,00,89,60,-52,71,0,00,231,05,-52,71,0,00,90,00
8670,-0,78,1,67,-14,31,-0,58,1,28,-89,60,0,00,-40,60,-58,24,0,00,190,30,-58,24,0,00,90,00
8686,-0,78,1,67,-14,31,-0,58,1,28,-89,60,0,00,-40,60,-62,95,0,00,155,67,-62,95,0,00,90,00
8703,1,27,2,65,-11,47,1,47,2,26,-158,20,0,00,102,90,-77,23,0,00,147,75,-77,23,0,00,90,00
8723,1,27,0,59,-7,94,1,47,0,20,-14,00,0,00,102,90,-67,75,0,00,141,03,-67,75,0,00,90,00
8741,2,16,0,59,-7,94,2,36,0,20,-14,00,0,00,165,20,-59,69,0,00,144,65,-59,69,0,00,90,00
8762,0,29,-0,20,-6,96,0,49,-0,59,41,30,0,00,34,30,-44,54,0,00,128,10,-44,54,0,00,90,00
8779,0,29,-0,20,-9,41,0,49,-0,59,41,30,0,00,34,30,-31,66,0,00,114,03,-31,66,0,00,90,00
8799,0,00,2,06,-9,41,0,20,1,67,-116,90,0,00,14,00,-44,45,0,00,99,02,-44,45,0,00,90,00
8817,0,00,7,45,-13,92,0,20,7,06,-494,20,0,00,14,00,-111,91,0,00,86,27,-90,00,0,00,86,27
8835,1,57,7,45,-13,92,1,77,7,06,-494,20,0,00,123,90,-169,25,0,00,91,92,-90,00,0,00,90,00
8854,1,67,7,74,-10,88,1,87,7,35,-514,50,0,00,130,90,-221,04,0,00,97,76,-90,00,0,00,90,00
8883,-0,20,1,18,-7,15,0,00,0,79,-55,30,0,00,0,00,-196,18,0,00,83,10,-90,00,0,00,83,10
8904,-0,20,1,18,-7,15,0,00,0,79,-55,30,0,00,0,00,-175,05,0,00,70,63,-90,00,0,00,70,63
8920,-0,20,1,18,-7,15,0,00,0,79,-55,30,0,00,0,00,-157,09,0,00,60,04,-90,00,0,00,60,04
8936,-0,20,1,37,-8,92,0,00,0,98,-68,60,0,00,0,00,-143,81,0,00,51,03,-90,00,0,00,51,03
8952,0,78,1,37,-8,92,0,98,0,98,-68,60,0,00,68,60,-132,53,0,00,53,67,-90,00,0,00,53,67
8968,1,27,3,23,-10,19,1,47,2,84,-198,80,0,00,102,90,-142,47,0,00,61,05,-90,00,0,00,61,05
8987,1,27,3,23,-12,45,1,47,2,84,-198,80,0,00,102,90,-150,92,0,00,67,33,-90,00,0,00,67,33
9006,1,37,3,14,-12,45,1,57,2,75,-192,50,0,00,109,90,-157,16,0,00,73,72,-90,00,0,00,73,72
9025,1,37,1,08,-8,23,1,57,0,69,-48,30,0,00,109,90,-140,83,0,00,79,14,-90,00,0,00,79,14
9051,-1,57,1,08,-9,31,-1,37,0,69,-48,30,0,00,-95,90,-126,95,0,00,52,89,-90,00,0,00,52,89
9070,0,00,2,35,-9,31,0,20,1,96,-137,20,0,00,14,00,-128,49,0,00,47,05,-90,00,0,00,47,05
9093,0,29,4,12,-12,05,0,49,3,73,-261,10,0,00,34,30,-148,38,0,00,45,14,-90,00,0,00,45,14
9114,0,29,3,14,-10,29,0,49,2,75,-192,50,0,00,34,30,-155,00,0,00,43,51,-90,00,0,00,43,51
9139,1,57,3,14,-9,51,1,77,2,75,-192,50,0,00,123,90,-160,62,0,00,55,57,-90,00,0,00,55,57
9159,0,49,2,55,-9,51,0,69,2,16,-151,20,0,00,48,30,-159,21,0,00,54,48,-90,00,0,00,54,48
9180,0,49,2,16,-9,70,0,69,1,77,-123,90,0,00,48,30,-153,91,0,00,53,55,-90,00,0,00,53,55
9196,0,49,2,16,-9,70,0,69,1,77,-123,90,0,00,48,30,-149,41,0,00,52,77,-90,00,0,00,52,77
9215,0,59,2,06,-9,90,0,79,1,67,-116,90,0,00,55,30,-144,53,0,00,53,15,-90,00,0,00,53,15
9235,0,59,0,10,-9,21,0,79,-0,29,20,30,0,00,55,30,-119,81,0,00,53,47,-90,00,0,00,53,47
9253,-0,49,0,10,-9,21,-0,29,-0,29,20,30,0,00,-20,30,-98,79,0,00,42,40,-90,00,0,00,42,40
9271,-3,23,-2,55,-9,41,-3,03,-2,94,205,80,0,00,-212,10,-53,10,0,00,4,23,-53,10,0,00,4,23
9289,-3,23,-2,55,-7,35,-3,03,-2,94,205,80,0,00,-212,10,-14,27,0,00,-28,22,-14,27,0,00,-28,22
9306,-2,35,-3,23,-7,35,-2,15,-3,62,253,40,0,00,-150,50,25,88,0,00,-46,56,25,88,0,00,-46,56
9323,-2,35,-3,23,-7,35,-2,15,-3,62,253,40,0,00,-150,50,60,01,0,00,-62,15,60,01,0,00,-62,15
9341,-2,35,-3,23,-7,35,-2,15,-3,62,253,40,0,00,-150,50,89,02,0,00,-75,41,89,02,0,00,-75,41
9360,-0,88,-1,76,-7,74,-0,68,-2,15,150,50,0,00,-47,60,98,24,0,00,-71,23,90,00,0,00,-71,23
9378,-0,88,-1,76,-10,68,-0,68,-2,15,150,50,0,00,-47,60,106,08,0,00,-67,69,90,00,0,00,-67,69
9394,-1,08,-1,47,-10,68,-0,88,-1,86,130,20,0,00,-61,60,109,70,0,00,-66,78,90,00,0,00,-66,78
9410,-1,08,-1,47,-11,96,-0,88,-1,86,130,20,0,00,-61,60,112,77,0,00,-66,00,90,00,0,00,-66,00
9427,-1,67,-0,29,-11,96,-1,47,-0,68,47,60,0,00,-102,90,103,00,0,00,-71,53,90,00,0,00,-71,53
9446,-1,27,1,08,-11,17,-1,07,0,69,-48,30,0,00,-74,90,80,30,0,00,-72,04,80,30,0,00,-72,04
9462,-1,27,1,08,-11,17,-1,07,0,69,-48,30,0,00,-74,90,61,01,0,00,-72,47,61,01,0,00,-72,47
9478,-0,20,0,88,-9,90,0,00,0,49,-34,30,0,00,0,00,46,72,0,00,-61,60,46,72,0,00,-61,60
9495,-0,20,0,88,-9,90,0,00,0,49,-34,30,0,00,0,00,34,56,0,00,-52,36,34,56,0,00,-52,36
9513,-0,29,0,98,-10,29,-0,09,0,59,-41,30,0,00,-6,30,23,18,0,00,-45,45,23,18,0,00,-45,45
9531,-0,29,0,98,-9,11,-0,09,0,59,-41,30,0,00,-6,30,13,51,0,00,-39,58,13,51,0,00,-39,58
9550,0,29,0,98,-9,11,0,49,0,59,-41,30,0,00,34,30,5,29,0,00,-28,50,5,29,0,00,-28,50
9573,-1,27,1,37,-11,56,-1,07,0,98,-68,60,0,00,-74,90,-5,79,0,00,-35,46,-5,79,0,00,-35,46
9591,-1,27,1,37,-11,27,-1,07,0,98,-68,60,0,00,-74,90,-15,21,0,00,-41,37,-15,21,0,00,-41,37
9610,-0,29,1,47,-11,27,-0,09,1,08,-75,60,0,00,-6,30,-24,27,0,00,-36,11,-24,27,0,00,-36,11
9628,0,20,0,39,-10,29,0,40,0,00,-0,00,0,00,28,00,-20,63,0,00,-26,50,-20,63,0,00,-26,50
9645,0,20,0,39,-10,29,0,40,0,00,-0,00,0,00,28,00,-17,54,0,00,-18,32,-17,54,0,00,-18,32
9663,-0,29,0,69,-10,49,-0,09,0,30,-21,00,0,00,-6,30,-18,06,0,00,-16,52,-18,06,0,00,-16,52
9685,-0,29,0,69,-10,09,-0,09,0,30,-21,00,0,00,-6,30,-18,50,0,00,-14,99,-18,50,0,00,-14,99
9701,-0,59,0,69,-10,09,-0,39,0,30,-21,00,0,00,-27,30,-18,87,0,00,-16,83,-18,87,0,00,-16,83
9717,-0,59,0,20,-9,90,-0,39,-0,19,13,30,0,00,-27,30,-14,05,0,00,-18,40,-14,05,0,00,-18,40
9734,0,00,0,20,-9,90,0,20,-0,19,13,30,0,00,14,00,-9,95,0,00,-13,54,-9,95,0,00,-13,54
9750,0,00,0,20,-9,90,0,20,-0,19,13,30,0,00,14,00,-6,46,0,00,-9,41,-6,46,0,00,-9,41
9766,0,00,0,20,-9,90,0,20,-0,19,13,30,0,00,14,00,-3,49,0,00,-5,90,-3,49,0,00,-5,90
9783,0,00,0,20,-9,51,0,20,-0,19,13,30,0,00,14,00,-0,98,0,00,-2,91,-0,98,0,00,-2,91
9800,0,00,0,20,-9,51,0,20,-0,19,13,30,0,00,14,00,1,17,0,00,-0,38,1,17,0,00,-0,38
9817,-0,49,-0,29,-9,51,-0,29,-0,68,47,60,0,00,-20,30,8,13,0,00,-3,37,8,13,0,00,-3,37
9836,-0,49,-0,20,-8,82,-0,29,-0,59,41,30,0,00,-20,30,13,11,0,00,-5,91,13,11,0,00,-5,91
9855,-0,20,-0,20,-8,82,0,00,-0,59,41,30,0,00,0,00,17,34,0,00,-5,02,17,34,0,00,-5,02
9879,-0,49,-0,39,-8,92,-0,29,-0,78,54,60,0,00,-20,30,22,93,0,00,-7,31,22,93,0,00,-7,31
9900,-0,49,0,78,-10,98,-0,29,0,39,-27,30,0,00,-20,30,15,39,0,00,-9,26,15,39,0,00,-9,26
9919,-0,49,0,78,-10,78,-0,29,0,39,-27,30,0,00,-20,30,8,99,0,00,-10,92,8,99,0,00,-10,92
9939,-0,59,0,98,-10,78,-0,39,0,59,-41,30,0,00,-27,30,1,44,0,00,-13,37,1,44,0,00,-13,37
9956,-0,59,0,88,-10,88,-0,39,0,49,-34,30,0,00,-27,30,-3,92,0,00,-15,46,-3,92,0,00,-15,46
9972,-0,49,0,88,-10,88,-0,29,0,49,-34,30,0,00,-20,30,-8,47,0,00,-16,19,-8,47,0,00,-16,19
9991,-0,29,0,49,-9,90,-0,09,0,10,-7,00,0,00,-6,30,-8,25,0,00,-14,70,-8,25,0,00,-14,70
10011,-0,29,0,49,-10,29,-0,09,0,10,-7,00,0,00,-6,30,-8,07,0,00,-13,44,-8,07,0,00,-13,44
10029,-0,29,0,39,-10,29,-0,09,0,00,-0,00,0,00,-6,30,-6,86,0,00,-12,37,-6,86,0,00,-12,37
10050,-0,20,0,39,-10,09,0,00,0,00,-0,00,0,00,0,00,-5,83,0,00,-10,52,-5,83,0,00,-10,52
10066,-0,20,0,39,-10,09,0,00,0,00,-0,00,0,00,0,00,-4,95,0,00,-8,94,-4,95,0,00,-8,94
10082,-0,20,0,59,-10,00,0,00,0,20,-14,00,0,00,0,00,-6,31,0,00,-7,60,-6,31,0,00,-7,60
10100,-0,20,0,59,-10,09,0,00,0,20,-14,00,0,00,0,00,-7,46,0,00,-6,46,-7,46,0,00,-6,46
10119,-0,20,0,39,-10,09,0,00,0,00,-0,00,0,00,0,00,-6,34,0,00,-5,49,-6,34,0,00,-5,49
10137,-0,20,0,39,-10,09,0,00,0,00,-0,00,0,00,0,00,-5,39,0,00,-4,67,-5,39,0,00,-4,67
10157,-0,20,0,39,-10,09,0,00,0,00,-0,00,0,00,0,00,-4,58,0,00,-3,97,-4,58,0,00,-3,97
10173,-0,20,0,39,-10,09,0,00,0,00,-0,00,0,00,0,00,-3,90,0,00,-3,37,-3,90,0,00,-3,37
10190,-0,20,0,39,-10,09,0,00,0,00,-0,00,0,00,0,00,-3,31,0,00,-2,87,-3,31,0,00,-2,87
10208,-0,20,0,39,-10,09,0,00,0,00,-0,00,0,00,0,00,-2,81,0,00,-2,44,-2,81,0,00,-2,44
10228,-0,20,0,39,-10,09,0,00,0,00,-0,00,0,00,0,00,-2,39,0,00,-2,07,-2,39,0,00,-2,07
10254,-0,20,0,39,-9,70,0,00,0,00,-0,00,0,00,0,00,-2,03,0,00,-1,76,-2,03,0,00,-1,76
10271,-0,29,0,49,-9,70,-0,09,0,10,-7,00,0,00,-6,30,-2,78,0,00,-2,44,-2,78,0,00,-2,44
10291,-0,20,0,59,-10,39,0,00,0,20,-14,00,0,00,0,00,-4,46,0,00,-2,07,-4,46,0,00,-2,07
10312,-0,20,0,59,-10,78,0,00,0,20,-14,00,0,00,0,00,-5,89,0,00,-1,76,-5,89,0,00,-1,76
10331,0,00,0,39,-10,78,0,20,0,00,-0,00,0,00,14,00,-5,01,0,00,0,60,-5,01,0,00,0,60
10353,-0,29,0,49,-9,70,-0,09,0,10,-7,00,0,00,-6,30,-5,31,0,00,-0,43,-5,31,0,00,-0,43
10373,-0,29,0,49,-10,58,-0,09,0,10,-7,00,0,00,-6,30,-5,56,0,00,-1,31,-5,56,0,00,-1,31
10391,-0,29,0,78,-10,58,-0,09,0,39,-27,30,0,00,-6,30,-8,82,0,00,-2,06,-8,82,0,00,-2,06
10408,-0,29,0,49,-10,19,-0,09,0,10,-7,00,0,00,-6,30,-8,55,0,00,-2,70,-8,55,0,00,-2,70
10429,-0,29,0,49,-10,09,-0,09,0,10,-7,00,0,00,-6,30,-8,32,0,00,-3,24,-8,32,0,00,-3,24
10451,-0,29,0,39,-10,09,-0,09,0,00,-0,00,0,00,-6,30,-7,07,0,00,-3,70,-7,07,0,00,-3,70
10469,-0,29,0,59,-9,80,-0,09,0,20,-14,00,0,00,-6,30,-8,11,0,00,-4,09,-8,11,0,00,-4,09
10491,-0,29,0,59,-10,09,-0,09,0,20,-14,00,0,00,-6,30,-8,99,0,00,-4,42,-8,99,0,00,-4,42
10518,-0,29,0,69,-10,09,-0,09,0,30,-21,00,0,00,-6,30,-10,79,0,00,-4,70,-10,79,0,00,-4,70
10543,-0,20,0,69,-10,49,0,00,0,30,-21,00,0,00,0,00,-12,32,0,00,-4,00,-12,32,0,00,-4,00
10564,-0,29,0,69,-10,09,-0,09,0,30,-21,00,0,00,-6,30,-13,63,0,00,-4,34,-13,63,0,00,-4,34
10583,-0,29,0,69,-10,09,-0,09,0,30,-21,00,0,00,-6,30,-14,73,0,00,-4,64,-14,73,0,00,-4,64
10599,-0,29,0,69,-10,09,-0,09,0,30,-21,00,0,00,-6,30,-15,67,0,00,-4,89,-15,67,0,00,-4,89
10618,-0,29,0,59,-10,00,-0,09,0,20,-14,00,0,00,-6,30,-15,42,0,00,-5,10,-15,42,0,00,-5,10
10635,-0,29,0,59,-10,00,-0,09,0,20,-14,00,0,00,-6,30,-15,21,0,00,-5,28,-15,21,0,00,-5,28
10653,-0,29,0,78,-10,00,-0,09,0,39,-27,30,0,00,-6,30,-17,02,0,00,-5,43,-17,02,0,00,-5,43
10672,-0,29,0,78,-10,19,-0,09,0,39,-27,30,0,00,-6,30,-18,56,0,00,-5,56,-18,56,0,00,-5,56
10694,-0,29,0,49,-10,19,-0,09,0,10,-7,00,0,00,-6,30,-16,83,0,00,-5,67,-16,83,0,00,-5,67
10713,-0,29,0,49,-10,19,-0,09,0,10,-7,00,0,00,-6,30,-15,35,0,00,-5,77,-15,35,0,00,-5,77
10733,-0,29,0,49,-10,09,-0,09,0,10,-7,00,0,00,-6,30,-14,10,0,00,-5,85,-14,10,0,00,-5,85
10772,-0,29,0,69,-10,09,-0,09,0,30,-21,00,0,00,-6,30,-15,14,0,00,-5,91,-15,14,0,00,-5,91
10802,-0,29,0,69,-9,90,-0,09,0,30,-21,00,0,00,-6,30,-16,02,0,00,-5,97,-16,02,0,00,-5,97
10825,-0,29,0,69,-10,09,-0,09,0,30,-21,00,0,00,-6,30,-16,76,0,00,-6,02,-16,76,0,00,-6,02
10842,-0,29,0,69,-10,09,-0,09,0,30,-21,00,0,00,-6,30,-17,40,0,00,-6,06,-17,40,0,00,-6,06
10863,-0,29,0,69,-10,09,-0,09,0,30,-21,00,0,00,-6,30,-17,94,0,00,-6,10,-17,94,0,00,-6,10
10880,-0,29,0,69,-10,00,-0,09,0,30,-21,00,0,00,-6,30,-18,40,0,00,-6,13,-18,40,0,00,-6,13
10898,-0,29,0,59,-10,00,-0,09,0,20,-14,00,0,00,-6,30,-17,74,0,00,-6,15,-17,74,0,00,-6,15
10915,-0,29,0,88,-10,39,-0,09,0,49,-34,30,0,00,-6,30,-20,22,0,00,-6,18,-20,22,0,00,-6,18
10932,-0,20,0,88,-10,39,0,00,0,49,-34,30,0,00,0,00,-22,33,0,00,-5,25,-22,33,0,00,-5,25
10948,-0,29,0,69,-10,09,-0,09,0,30,-21,00,0,00,-6,30,-22,13,0,00,-5,41,-22,13,0,00,-5,41
10968,-0,29,0,69,-10,09,-0,09,0,30,-21,00,0,00,-6,30,-21,96,0,00,-5,54,-21,96,0,00,-5,54
10989,-0,29,0,59,-10,00,-0,09,0,20,-14,00,0,00,-6,30,-20,77,0,00,-5,66,-20,77,0,00,-5,66
11006,-0,29,0,59,-10,00,-0,09,0,20,-14,00,0,00,-6,30,-19,75,0,00,-5,75,-19,75,0,00,-5,75
11025,-0,29,0,59,-10,00,-0,09,0,20,-14,00,0,00,-6,30,-18,89,0,00,-5,83,-18,89,0,00,-5,83
11044,-0,29,0,59,-10,00,-0,09,0,20,-14,00,0,00,-6,30,-18,16,0,00,-5,90,-18,16,0,00,-5,90
11063,-0,29,0,78,-10,29,-0,09,0,39,-27,30,0,00,-6,30,-19,53,0,00,-5,96,-19,53,0,00,-5,96
11079,-0,29,0,78,-10,29,-0,09,0,39,-27,30,0,00,-6,30,-20,69,0,00,-6,01,-20,69,0,00,-6,01
11098,-0,29,0,78,-10,29,-0,09,0,39,-27,30,0,00,-6,30,-21,69,0,00,-6,06,-21,69,0,00,-6,06
11114,-0,29,0,78,-10,29,-0,09,0,39,-27,30,0,00,-6,30,-22,53,0,00,-6,09,-22,53,0,00,-6,09
11130,-0,29,0,59,-10,39,-0,09,0,20,-14,00,0,00,-6,30,-21,25,0,00,-6,12,-21,25,0,00,-6,12
11151,-0,29,0,59,-10,19,-0,09,0,20,-14,00,0,00,-6,30,-20,16,0,00,-6,15,-20,16,0,00,-6,15
11168,-0,29,0,49,-10,19,-0,09,0,10,-7,00,0,00,-6,30,-18,19,0,00,-6,17,-18,19,0,00,-6,17
11184,-0,29,0,59,-10,00,-0,09,0,20,-14,00,0,00,-6,30,-17,56,0,00,-6,19,-17,56,0,00,-6,19
11200,-0,29,0,59,-10,00,-0,09,0,20,-14,00,0,00,-6,30,-17,03,0,00,-6,21,-17,03,0,00,-6,21
11217,-0,29,0,39,-10,29,-0,09,0,00,-0,00,0,00,-6,30,-14,47,0,00,-6,22,-14,47,0,00,-6,22
11242,-0,29,0,39,-10,19,-0,09,0,00,-0,00,0,00,-6,30,-12,30,0,00,-6,23,-12,30,0,00,-6,23
11263,-0,29,0,49,-10,19,-0,09,0,10,-7,00,0,00,-6,30,-11,51,0,00,-6,24,-11,51,0,00,-6,24
11281,-0,29,0,39,-10,09,-0,09,0,00,-0,00,0,00,-6,30,-9,78,0,00,-6,25,-9,78,0,00,-6,25
11297,-0,29,0,39,-10,09,-0,09,0,00,-0,00,0,00,-6,30,-8,31,0,00,-6,30,-8,31,0,00,-6,30
11315,-0,29,0,39,-10,09,-0,09,0,00,-0,00,0,00,-6,30,-7,07,0,00,-6,30,-7,07,0,00,-6,30
11332,-0,29,0,39,-10,19,-0,09,0,00,-0,00,0,00,-6,30,-6,01,0,00,-6,30,-6,01,0,00,-6,30
11351,-0,29,0,29,-10,19,-0,09,-0,10,7,00,0,00,-6,30,-4,06,0,00,-6,30,-4,06,0,00,-6,30
11373,-0,29,0,20,-10,09,-0,09,-0,19,13,30,0,00,-6,30,-1,45,0,00,-6,30,-1,45,0,00,-6,30
11400,-0,29,0,20,-10,29,-0,09,-0,19,13,30,0,00,-6,30,0,76,0,00,-6,30,0,76,0,00,-6,30
11423,-0,29,0,20,-10,29,-0,09,-0,19,13,30,0,00,-6,30,2,64,0,00,-6,30,2,64,0,00,-6,30
11449,-0,29,0,00,-10,29,-0,09,-0,39,27,30,0,00,-6,30,6,34,0,00,-6,30,6,34,0,00,-6,30
11475,-0,29,0,00,-10,29,-0,09,-0,39,27,30,0,00,-6,30,9,48,0,00,-6,30,9,48,0,00,-6,30
11496,-0,49,0,29,-10,39,-0,29,-0,10,7,00,0,00,-20,30,9,11,0,00,-8,40,9,11,0,00,-8,40
11515,-0,49,0,00,-10,49,-0,29,-0,39,27,30,0,00,-20,30,11,84,0,00,-10,18,11,84,0,00,-10,18
11532,-0,29,0,00,-10,49,-0,09,-0,39,27,30,0,00,-6,30,14,16,0,00,-9,60,14,16,0,00,-9,60
11548,-0,29,0,00,-10,49,-0,09,-0,39,27,30,0,00,-6,30,16,13,0,00,-9,11,16,13,0,00,-9,11
11565,-0,29,0,00,-10,49,-0,09,-0,39,27,30,0,00,-6,30,17,81,0,00,-8,69,17,81,0,00,-8,69
11584,-0,29,-0,39,-10,00,-0,09,-0,78,54,60,0,00,-6,30,23,32,0,00,-8,33,23,32,0,00,-8,33
11603,-0,29,-0,39,-9,90,-0,09,-0,78,54,60,0,00,-6,30,28,02,0,00,-8,02,28,02,0,00,-8,02
11619,-0,29,-0,29,-9,90,-0,09,-0,68,47,60,0,00,-6,30,30,95,0,00,-7,77,30,95,0,00,-7,77
11635,-0,29,-0,39,-10,39,-0,09,-0,78,54,60,0,00,-6,30,34,50,0,00,-7,55,34,50,0,00,-7,55
11654,-0,29,-0,39,-10,39,-0,09,-0,78,54,60,0,00,-6,30,37,52,0,00,-7,36,37,52,0,00,-7,36
11672,-0,29,-0,59,-10,39,-0,09,-0,98,68,60,0,00,-6,30,42,18,0,00,-7,20,42,18,0,00,-7,20
11691,-0,29,-0,59,-9,90,-0,09,-0,98,68,60,0,00,-6,30,46,14,0,00,-7,06,46,14,0,00,-7,06
11711,-0,29,-0,78,-9,90,-0,09,-1,17,81,90,0,00,-6,30,51,51,0,00,-6,95,51,51,0,00,-6,95
11738,-0,49,-0,88,-10,00,-0,29,-1,27,88,90,0,00,-20,30,57,11,0,00,-8,95,57,11,0,00,-8,95
11760,-0,49,-0,78,-10,29,-0,29,-1,17,81,90,0,00,-20,30,60,83,0,00,-10,65,60,83,0,00,-10,65
11779,-0,49,-0,78,-10,19,-0,29,-1,17,81,90,0,00,-20,30,63,99,0,00,-12,10,63,99,0,00,-12,10
11798,-0,29,-0,88,-10,19,-0,09,-1,27,88,90,0,00,-6,30,67,73,0,00,-11,23,67,73,0,00,-11,23
11822,-0,29,-1,08,-10,00,-0,09,-1,47,102,90,0,00,-6,30,73,00,0,00,-10,49,73,00,0,00,-10,49
11847,-0,49,-1,37,-10,19,-0,29,-1,76,123,20,0,00,-20,30,80,53,0,00,-11,96,80,53,0,00,-11,96
11872,-0,49,-1,37,-10,19,-0,29,-1,76,123,20,0,00,-20,30,86,93,0,00,-13,21,86,93,0,00,-13,21
11893,-0,49,-1,37,-10,19,-0,29,-1,76,123,20,0,00,-20,30,92,37,0,00,-14,28,90,00,0,00,-14,28
11912,-0,49,-1,37,-10,39,-0,29,-1,76,123,20,0,00,-20,30,97,00,0,00,-15,18,90,00,0,00,-15,18
11929,-0,49,-1,37,-9,90,-0,29,-1,76,123,20,0,00,-20,30,100,93,0,00,-15,95,90,00,0,00,-15,95
11951,-0,49,-1,57,-9,90,-0,29,-1,96,137,20,0,00,-20,30,106,37,0,00,-16,60,90,00,0,00,-16,60
11968,-0,49,-1,57,-9,90,-0,29,-1,96,137,20,0,00,-20,30,110,99,0,00,-17,16,90,00,0,00,-17,16
11985,-0,49,-1,57,-9,90,-0,29,-1,96,137,20,0,00,-20,30,114,92,0,00,-17,63,90,00,0,00,-17,63
12003,-0,59,-1,67,-9,80,-0,39,-2,06,144,20,0,00,-27,30,119,32,0,00,-19,08,90,00,0,00,-19,08
12021,-0,59,-1,67,-9,80,-0,39,-2,06,144,20,0,00,-27,30,123,05,0,00,-20,31,90,00,0,00,-20,31
12041,-0,49,-1,86,-9,80,-0,29,-2,25,157,50,0,00,-20,30,128,22,0,00,-20,30,90,00,0,00,-20,30
12062,-0,49,-1,67,-10,29,-0,29,-2,06,144,20,0,00,-20,30,130,61,0,00,-20,30,90,00,0,00,-20,30
12086,-0,49,-1,67,-10,29,-0,29,-2,06,144,20,0,00,-20,30,132,65,0,00,-20,30,90,00,0,00,-20,30
12123,-0,49,-2,06,-9,31,-0,29,-2,45,171,50,0,00,-20,30,138,48,0,00,-20,30,90,00,0,00,-20,30
12154,-0,59,-1,76,-9,11,-0,39,-2,15,150,50,0,00,-27,30,140,28,0,00,-21,35,90,00,0,00,-21,35
12183,-0,59,-1,47,-9,51,-0,39,-1,86,130,20,0,00,-27,30,138,77,0,00,-22,24,90,00,0,00,-22,24
12201,-0,59,-1,47,-9,70,-0,39,-1,86,130,20,0,00,-27,30,137,48,0,00,-23,00,90,00,0,00,-23,00
12222,-0,29,-1,27,-9,70,-0,09,-1,66,116,20,0,00,-6,30,134,29,0,00,-20,50,90,00,0,00,-20,50
12245,-0,20,-0,88,-9,80,0,00,-1,27,88,90,0,00,0,00,127,48,0,00,-17,42,90,00,0,00,-17,42
12268,-0,20,0,10,-10,58,0,00,-0,29,20,30,0,00,0,00,111,41,0,00,-14,81,90,00,0,00,-14,81
12294,-0,20,0,10,-10,58,0,00,-0,29,20,30,0,00,0,00,97,74,0,00,-12,59,90,00,0,00,-12,59
12317,-0,20,0,10,-10,58,0,00,-0,29,20,30,0,00,0,00,86,12,0,00,-10,70,86,12,0,00,-10,70
12337,-0,20,0,29,-10,88,0,00,-0,10,7,00,0,00,0,00,74,26,0,00,-9,09,74,26,0,00,-9,09
12358,-0,20,0,29,-10,68,0,00,-0,10,7,00,0,00,0,00,64,17,0,00,-7,73,64,17,0,00,-7,73
12381,-0,20,0,29,-9,90,0,00,-0,10,7,00,0,00,0,00,55,59,0,00,-6,57,55,59,0,00,-6,57
12397,-0,20,0,20,-9,90,0,00,-0,19,13,30,0,00,0,00,49,25,0,00,-5,58,49,25,0,00,-5,58
12417,-0,20,0,49,-9,90,0,00,0,10,-7,00,0,00,0,00,40,81,0,00,-4,75,40,81,0,00,-4,75
12435,-0,29,0,49,-9,90,-0,09,0,10,-7,00,0,00,-6,30,33,64,0,00,-4,98,33,64,0,00,-4,98
12451,-0,20,0,59,-10,58,0,00,0,20,-14,00,0,00,0,00,26,49,0,00,-4,23,26,49,0,00,-4,23
12469,-0,20,0,59,-10,09,0,00,0,20,-14,00,0,00,0,00,20,42,0,00,-3,60,20,42,0,00,-3,60
12486,-0,20,0,69,-10,09,0,00,0,30,-21,00,0,00,0,00,14,21,0,00,-3,06,14,21,0,00,-3,06
12504,-0,20,0,78,-9,80,0,00,0,39,-27,30,0,00,0,00,7,98,0,00,-2,60,7,98,0,00,-2,60
12523,-0,20,0,78,-9,80,0,00,0,39,-27,30,0,00,0,00,2,69,0,00,-2,21,2,69,0,00,-2,21
12539,0,00,0,78,-9,80,0,20,0,39,-27,30,0,00,14,00,-1,81,0,00,0,22,-1,81,0,00,0,22
12556,0,00,0,78,-9,80,0,20,0,39,-27,30,0,00,14,00,-5,63,0,00,2,29,-5,63,0,00,2,29
12575,0,20,1,27,-9,60,0,40,0,88,-61,60,0,00,28,00,-14,03,0,00,6,15,-14,03,0,00,6,15
12591,0,20,1,27,-9,90,0,40,0,88,-61,60,0,00,28,00,-21,16,0,00,9,42,-21,16,0,00,9,42
12610,0,20,1,47,-9,90,0,40,1,08,-75,60,0,00,28,00,-29,33,0,00,12,21,-29,33,0,00,12,21
12627,0,20,1,67,-9,90,0,40,1,28,-89,60,0,00,28,00,-38,37,0,00,14,58,-38,37,0,00,14,58
12645,0,00,1,67,-9,90,0,20,1,28,-89,60,0,00,14,00,-46,05,0,00,14,49,-46,05,0,00,14,49
12662,-0,20,1,96,-9,80,0,00,1,57,-109,90,0,00,0,00,-55,63,0,00,12,32,-55,63,0,00,12,32
12679,-0,20,1,96,-9,60,0,00,1,57,-109,90,0,00,0,00,-63,77,0,00,10,47,-63,77,0,00,10,47
12695,0,29,1,96,-9,60,0,49,1,57,-109,90,0,00,34,30,-70,69,0,00,14,04,-70,69,0,00,14,04
12713,0,29,1,96,-9,60,0,49,1,57,-109,90,0,00,34,30,-76,57,0,00,17,08,-76,57,0,00,17,08
12729,0,29,1,96,-9,60,0,49,1,57,-109,90,0,00,34,30,-81,57,0,00,19,67,-81,57,0,00,19,67
12745,0,29,2,55,-9,80,0,49,2,16,-151,20,0,00,34,30,-92,02,0,00,21,86,-90,00,0,00,21,86
12762,0,00,2,55,-9,80,0,20,2,16,-151,20,0,00,14,00,-100,89,0,00,20,68,-90,00,0,00,20,68
12779,0,00,2,84,-10,09,0,20,2,45,-171,50,0,00,14,00,-111,48,0,00,19,68,-90,00,0,00,19,68
12797,0,00,2,84,-10,09,0,20,2,45,-171,50,0,00,14,00,-120,49,0,00,18,83,-90,00,0,00,18,83
12825,0,20,3,43,-10,58,0,40,3,04,-212,80,0,00,28,00,-134,33,0,00,20,20,-90,00,0,00,20,20
12849,0,20,3,04,-9,90,0,40,2,65,-185,50,0,00,28,00,-142,01,0,00,21,37,-90,00,0,00,21,37
12866,0,20,3,14,-9,21,0,40,2,75,-192,50,0,00,28,00,-149,58,0,00,22,37,-90,00,0,00,22,37
12885,0,20,3,14,-9,21,0,40,2,75,-192,50,0,00,28,00,-156,02,0,00,23,21,-90,00,0,00,23,21
12901,0,20,3,53,-9,70,0,40,3,14,-219,80,0,00,28,00,-165,59,0,00,23,93,-90,00,0,00,23,93
12917,0,20,3,53,-9,70,0,40,3,14,-219,80,0,00,28,00,-173,72,0,00,24,54,-90,00,0,00,24,54
12933,0,20,3,53,-9,70,0,40,3,14,-219,80,0,00,28,00,-180,63,0,00,25,06,-90,00,0,00,25,06
12949,0,20,3,53,-9,60,0,40,3,14,-219,80,0,00,28,00,-186,51,0,00,25,50,-90,00,0,00,25,50
12966,0,29,3,63,-9,60,0,49,3,24,-226,80,0,00,34,30,-192,55,0,00,26,82,-90,00,0,00,26,82
12983,0,29,3,43,-9,41,0,49,3,04,-212,80,0,00,34,30,-195,59,0,00,27,94,-90,00,0,00,27,94
13000,0,00,3,43,-9,41,0,20,3,04,-212,80,0,00,14,00,-198,17,0,00,25,85,-90,00,0,00,25,85
13017,0,00,3,33,-9,51,0,20,2,94,-205,80,0,00,14,00,-199,31,0,00,24,07,-90,00,0,00,24,07
13033,0,20,3,33,-9,51,0,40,2,94,-205,80,0,00,28,00,-200,29,0,00,24,66,-90,00,0,00,24,66
13050,0,20,3,33,-9,51,0,40,2,94,-205,80,0,00,28,00,-201,11,0,00,25,16,-90,00,0,00,25,16
13066,0,20,3,33,-9,51,0,40,2,94,-205,80,0,00,28,00,-201,82,0,00,25,59,-90,00,0,00,25,59
13082,0,20,3,43,-9,80,0,40,3,04,-212,80,0,00,28,00,-203,46,0,00,25,95,-90,00,0,00,25,95
13098,0,20,3,43,-10,29,0,40,3,04,-212,80,0,00,28,00,-204,86,0,00,26,26,-90,00,0,00,26,26
13114,0,29,3,33,-10,29,0,49,2,94,-205,80,0,00,34,30,-205,01,0,00,27,46,-90,00,0,00,27,46
13130,0,29,3,33,-10,29,0,49,2,94,-205,80,0,00,34,30,-205,12,0,00,28,49,-90,00,0,00,28,49
13147,0,29,3,33,-10,29,0,49,2,94,-205,80,0,00,34,30,-205,23,0,00,29,36,-90,00,0,00,29,36
13163,0,29,3,33,-9,70,0,49,2,94,-205,80,0,00,34,30,-205,31,0,00,30,10,-90,00,0,00,30,10
13179,0,20,3,14,-9,70,0,40,2,75,-192,50,0,00,28,00,-203,39,0,00,29,79,-90,00,0,00,29,79
13195,0,20,3,04,-9,60,0,40,2,65,-185,50,0,00,28,00,-200,71,0,00,29,52,-90,00,0,00,29,52
13215,-0,20,3,04,-9,60,0,00,2,65,-185,50,0,00,0,00,-198,43,0,00,25,09,-90,00,0,00,25,09
13232,0,20,3,04,-10,09,0,40,2,65,-185,50,0,00,28,00,-196,49,0,00,25,53,-90,00,0,00,25,53
13250,0,20,3,04,-10,39,0,40,2,65,-185,50,0,00,28,00,-194,84,0,00,25,90,-90,00,0,00,25,90
13267,0,20,3,04,-10,39,0,40,2,65,-185,50,0,00,28,00,-193,44,0,00,26,21,-90,00,0,00,26,21
13283,0,20,3,04,-9,21,0,40,2,65,-185,50,0,00,28,00,-192,25,0,00,26,48,-90,00,0,00,26,48
13299,0,00,2,25,-9,21,0,20,1,86,-130,20,0,00,14,00,-182,94,0,00,24,61,-90,00,0,00,24,61
13317,0,00,2,35,-9,51,0,20,1,96,-137,20,0,00,14,00,-176,08,0,00,23,02,-90,00,0,00,23,02
13333,0,00,2,35,-9,51,0,20,1,96,-137,20,0,00,14,00,-170,25,0,00,21,67,-90,00,0,00,21,67
13349,0,20,2,25,-10,39,0,40,1,86,-130,20,0,00,28,00,-164,24,0,00,22,62,-90,00,0,00,22,62
13370,0,20,2,25,-9,21,0,40,1,86,-130,20,0,00,28,00,-159,13,0,00,23,42,-90,00,0,00,23,42
13389,0,00,1,67,-9,21,0,20,1,28,-89,60,0,00,14,00,-148,70,0,00,22,01,-90,00,0,00,22,01
13405,0,00,1,86,-9,51,0,20,1,47,-102,90,0,00,14,00,-141,83,0,00,20,81,-90,00,0,00,20,81
13423,0,00,1,86,-9,51,0,20,1,47,-102,90,0,00,14,00,-135,99,0,00,19,79,-90,00,0,00,19,79
13441,0,00,1,96,-10,00,0,20,1,57,-109,90,0,00,14,00,-132,08,0,00,18,92,-90,00,0,00,18,92
13458,0,00,1,96,-10,00,0,20,1,57,-109,90,0,00,14,00,-128,75,0,00,18,18,-90,00,0,00,18,18
13478,0,00,1,76,-10,00,0,20,1,37,-95,90,0,00,14,00,-123,82,0,00,17,55,-90,00,0,00,17,55
13495,0,00,1,86,-10,09,0,20,1,47,-102,90,0,00,14,00,-120,69,0,00,17,02,-90,00,0,00,17,02
13512,0,00,1,86,-10,09,0,20,1,47,-102,90,0,00,14,00,-118,02,0,00,16,57,-90,00,0,00,16,57
13531,-0,20,1,76,-10,00,0,00,1,37,-95,90,0,00,0,00,-114,70,0,00,14,08,-90,00,0,00,14,08
13547,-0,20,1,76,-10,00,0,00,1,37,-95,90,0,00,0,00,-111,88,0,00,11,97,-90,00,0,00,11,97
13568,-0,20,1,76,-10,00,0,00,1,37,-95,90,0,00,0,00,-109,48,0,00,10,17,-90,00,0,00,10,17
13598,-0,20,1,57,-10,00,0,00,1,18,-82,60,0,00,0,00,-105,45,0,00,8,65,-90,00,0,00,8,65
13634,0,00,1,47,-9,70,0,20,1,08,-75,60,0,00,14,00,-100,97,0,00,9,45,-90,00,0,00,9,45
13661,-0,20,1,67,-10,09,0,00,1,28,-89,60,0,00,0,00,-99,27,0,00,8,03,-90,00,0,00,8,03
13683,0,00,1,37,-10,09,0,20,0,98,-68,60,0,00,14,00,-94,67,0,00,8,93,-90,00,0,00,8,93
13701,0,00,1,37,-10,00,0,20,0,98,-68,60,0,00,14,00,-90,76,0,00,9,69,-90,00,0,00,9,69
13720,0,00,1,57,-10,00,0,20,1,18,-82,60,0,00,14,00,-89,53,0,00,10,34,-89,53,0,00,10,34
13740,-0,20,1,76,-10,19,0,00,1,37,-95,90,0,00,0,00,-90,49,0,00,8,79,-90,00,0,00,8,79
13759,-0,20,1,76,-10,19,0,00,1,37,-95,90,0,00,0,00,-91,30,0,00,7,47,-90,00,0,00,7,47
13781,0,00,1,47,-10,19,0,20,1,08,-75,60,0,00,14,00,-88,95,0,00,8,45,-88,95,0,00,8,45
13802,-0,20,1,08,-9,70,0,00,0,69,-48,30,0,00,0,00,-82,85,0,00,7,18,-82,85,0,00,7,18
13823,-0,20,1,08,-10,19,0,00,0,69,-48,30,0,00,0,00,-77,67,0,00,6,10,-77,67,0,00,6,10
13841,-0,20,1,27,-10,19,0,00,0,88,-61,60,0,00,0,00,-75,26,0,00,5,19,-75,26,0,00,5,19
13857,-0,20,1,18,-10,09,0,00,0,79,-55,30,0,00,0,00,-72,26,0,00,4,41,-72,26,0,00,4,41
13875,0,00,1,18,-10,09,0,20,0,79,-55,30,0,00,14,00,-69,72,0,00,5,85,-69,72,0,00,5,85
13900,0,20,1,08,-9,70,0,40,0,69,-48,30,0,00,28,00,-66,51,0,00,9,17,-66,51,0,00,9,17
13917,0,20,1,08,-10,19,0,40,0,69,-48,30,0,00,28,00,-63,77,0,00,12,00,-63,77,0,00,12,00
13934,-0,20,1,08,-10,19,0,00,0,69,-48,30,0,00,0,00,-61,45,0,00,10,20,-61,45,0,00,10,20
13950,-0,20,1,08,-10,19,0,00,0,69,-48,30,0,00,0,00,-59,48,0,00,8,67,-59,48,0,00,8,67
13968,-0,20,1,08,-10,19,0,00,0,69,-48,30,0,00,0,00,-57,80,0,00,7,37,-57,80,0,00,7,37
13987,-0,20,1,08,-10,19,0,00,0,69,-48,30,0,00,0,00,-56,38,0,00,6,26,-56,38,0,00,6,26
14003,-0,20,1,08,-10,09,0,00,0,69,-48,30,0,00,0,00,-55,17,0,00,5,32,-55,17,0,00,5,32
14019,0,00,0,98,-10,09,0,20,0,59,-41,30,0,00,14,00,-53,09,0,00,6,62,-53,09,0,00,6,62
14041,0,00,0,98,-10,09,0,20,0,59,-41,30,0,00,14,00,-51,32,0,00,7,73,-51,32,0,00,7,73
14057,0,20,0,98,-10,09,0,40,0,59,-41,30,0,00,28,00,-49,82,0,00,10,77,-49,82,0,00,10,77
14079,0,00,0,98,-10,09,0,20,0,59,-41,30,0,00,14,00,-48,54,0,00,11,26,-48,54,0,00,11,26
14096,0,00,0,88,-9,90,0,20,0,49,-34,30,0,00,14,00,-46,40,0,00,11,67,-46,40,0,00,11,67
14121,-0,20,0,88,-10,19,0,00,0,49,-34,30,0,00,0,00,-44,59,0,00,9,92,-44,59,0,00,9,92
14144,0,00,0,88,-10,19,0,20,0,49,-34,30,0,00,14,00,-43,04,0,00,10,53,-43,04,0,00,10,53
14166,0,00,1,08,-10,39,0,20,0,69,-48,30,0,00,14,00,-43,83,0,00,11,05,-43,83,0,00,11,05
14186,0,00,0,98,-10,29,0,20,0,59,-41,30,0,00,14,00,-43,45,0,00,11,49,-43,45,0,00,11,49
14205,-0,20,0,98,-10,29,0,00,0,59,-41,30,0,00,0,00,-43,13,0,00,9,77,-43,13,0,00,9,77
14223,-0,20,0,88,-10,19,0,00,0,49,-34,30,0,00,0,00,-41,81,0,00,8,30,-41,81,0,00,8,30
14243,-0,20,0,88,-10,19,0,00,0,49,-34,30,0,00,0,00,-40,68,0,00,7,06,-40,68,0,00,7,06
14265,-0,20,0,88,-10,19,0,00,0,49,-34,30,0,00,0,00,-39,72,0,00,6,00,-39,72,0,00,6,00
14282,0,00,0,78,-10,29,0,20,0,39,-27,30,0,00,14,00,-37,86,0,00,7,20,-37,86,0,00,7,20
14305,0,00,0,78,-10,29,0,20,0,39,-27,30,0,00,14,00,-36,28,0,00,8,22,-36,28,0,00,8,22
14330,-0,20,0,78,-10,00,0,00,0,39,-27,30,0,00,0,00,-34,93,0,00,6,99,-34,93,0,00,6,99
14352,-0,20,0,78,-10,00,0,00,0,39,-27,30,0,00,0,00,-33,78,0,00,5,94,-33,78,0,00,5,94
14368,-0,20,0,69,-10,09,0,00,0,30,-21,00,0,00,0,00,-31,87,0,00,5,05,-31,87,0,00,5,05
14384,-0,20,0,69,-10,09,0,00,0,30,-21,00,0,00,0,00,-30,24,0,00,4,29,-30,24,0,00,4,29
14400,-0,20,0,59,-10,00,0,00,0,20,-14,00,0,00,0,00,-27,80,0,00,3,65,-27,80,0,00,3,65
14416,-0,20,0,59,-10,00,0,00,0,20,-14,00,0,00,0,00,-25,73,0,00,3,10,-25,73,0,00,3,10
14434,-0,20,0,59,-10,00,0,00,0,20,-14,00,0,00,0,00,-23,97,0,00,2,63,-23,97,0,00,2,63
14451,-0,20,0,59,-10,19,0,00,0,20,-14,00,0,00,0,00,-22,48,0,00,2,24,-22,48,0,00,2,24
14468,-0,20,0,49,-10,19,0,00,0,10,-7,00,0,00,0,00,-20,15,0,00,1,90,-20,15,0,00,1,90
14490,-0,20,0,49,-10,19,0,00,0,10,-7,00,0,00,0,00,-18,18,0,00,1,62,-18,18,0,00,1,62
14514,-0,20,0,49,-10,19,0,00,0,10,-7,00,0,00,0,00,-16,50,0,00,1,38,-16,50,0,00,1,38
14536,-0,20,0,49,-10,19,0,00,0,10,-7,00,0,00,0,00,-15,08,0,00,1,17,-15,08,0,00,1,17
14553,-0,20,0,49,-10,49,0,00,0,10,-7,00,0,00,0,00,-13,87,0,00,0,99,-13,87,0,00,0,99
14571,-0,20,0,49,-10,29,0,00,0,10,-7,00,0,00,0,00,-12,84,0,00,0,84,-12,84,0,00,0,84
14587,-0,20,0,39,-10,29,0,00,0,00,-0,00,0,00,0,00,-10,91,0,00,0,72,-10,91,0,00,0,72
14608,-0,20,0,39,-10,29,0,00,0,00,-0,00,0,00,0,00,-9,27,0,00,0,61,-9,27,0,00,0,61
14627,-0,20,0,39,-9,90,0,00,0,00,-0,00,0,00,0,00,-7,88,0,00,0,52,-7,88,0,00,0,52
14644,-0,20,0,29,-10,19,0,00,-0,10,7,00,0,00,0,00,-5,65,0,00,0,44,-5,65,0,00,0,44
14663,-0,20,0,39,-10,58,0,00,0,00,-0,00,0,00,0,00,-4,80,0,00,0,37,-4,80,0,00,0,37
14681,-0,20,0,39,-10,58,0,00,0,00,-0,00,0,00,0,00,-4,08,0,00,0,32,-4,08,0,00,0,32
14702,-0,20,-0,10,-9,70,0,00,-0,49,34,30,0,00,0,00,1,67,0,00,0,27,1,67,0,00,0,27
14721,-0,20,-0,10,-10,09,0,00,-0,49,34,30,0,00,0,00,6,57,0,00,0,23,6,57,0,00,0,23
14744,-0,20,0,20,-10,09,0,00,-0,19,13,30,0,00,0,00,7,58,0,00,0,20,7,58,0,00,0,20
14760,-0,20,0,29,-10,39,0,00,-0,10,7,00,0,00,0,00,7,49,0,00,0,17,7,49,0,00,0,17
14779,-0,20,0,29,-10,09,0,00,-0,10,7,00,0,00,0,00,7,42,0,00,0,14,7,42,0,00,0,14
14795,-0,20,0,20,-10,09,0,00,-0,19,13,30,0,00,0,00,8,30,0,00,0,12,8,30,0,00,0,12
14813,-0,20,0,20,-10,09,0,00,-0,19,13,30,0,00,0,00,9,05,0,00,0,10,9,05,0,00,0,10
14831,-0,20,0,20,-10,09,0,00,-0,19,13,30,0,00,0,00,9,69,0,00,0,09,9,69,0,00,0,09
14848,-0,20,0,20,-10,09,0,00,-0,19,13,30,0,00,0,00,10,23,0,00,0,07,10,23,0,00,0,07
14864,-0,20,0,20,-10,09,0,00,-0,19,13,30,0,00,0,00,10,69,0,00,0,06,10,69,0,00,0,06
14887,-0,20,0,39,-10,09,0,00,0,00,-0,00,0,00,0,00,9,09,0,00,0,05,9,09,0,00,0,05
14904,-0,20,0,29,-10,19,0,00,-0,10,7,00,0,00,0,00,8,77,0,00,0,05,8,77,0,00,0,05
14924,-0,20,0,29,-10,19,0,00,-0,10,7,00,0,00,0,00,8,51,0,00,0,00,8,51,0,00,0,00
14941,-0,20,0,29,-10,19,0,00,-0,10,7,00,0,00,0,00,8,28,0,00,0,00,8,28,0,00,0,00
14967,-0,20,0,29,-10,19,0,00,-0,10,7,00,0,00,0,00,8,09,0,00,0,00,8,09,0,00,0,00
14983,-0,20,0,29,-10,19,0,00,-0,10,7,00,0,00,0,00,7,93,0,00,0,00,7,93,0,00,0,00
14999,-0,20,0,29,-10,19,0,00,-0,10,7,00,0,00,0,00,7,79,0,00,0,00,7,79,0,00,0,00
15017,-0,20,0,29,-10,19,0,00,-0,10,7,00,0,00,0,00,7,67,0,00,0,00,7,67,0,00,0,00
15034,-0,20,0,29,-10,19,0,00,-0,10,7,00,0,00,0,00,7,57,0,00,0,00,7,57,0,00,0,00
15051,-0,20,0,29,-10,29,0,00,-0,10,7,00,0,00,0,00,7,48,0,00,0,00,7,48,0,00,0,00
15067,-0,20,0,39,-10,29,0,00,0,00,-0,00,0,00,0,00,6,36,0,00,0,00,6,36,0,00,0,00
15083,-0,20,0,39,-10,09,0,00,0,00,-0,00,0,00,0,00,5,41,0,00,0,00,5,41,0,00,0,00
15099,-0,20,0,39,-10,09,0,00,0,00,-0,00,0,00,0,00,4,60,0,00,0,00,4,60,0,00,0,00
15121,-0,20,0,20,-10,09,0,00,-0,19,13,30,0,00,0,00,5,90,0,00,0,00,5,90,0,00,0,00
15137,-0,20,0,20,-10,09,0,00,-0,19,13,30,0,00,0,00,7,01,0,00,0,00,7,01,0,00,0,00
15153,-0,20,0,39,-10,09,0,00,0,00,-0,00,0,00,0,00,5,96,0,00,0,00,5,96,0,00,0,00
15170,-0,20,0,39,-10,09,0,00,0,00,-0,00,0,00,0,00,5,07,0,00,0,00,5,07,0,00,0,00
15186,-0,20,0,20,-10,09,0,00,-0,19,13,30,0,00,0,00,6,30,0,00,0,00,6,30,0,00,0,00
15201,-0,20,0,20,-10,09,0,00,-0,19,13,30,0,00,0,00,7,35,0,00,0,00,7,35,0,00,0,00
15217,-0,20,0,39,-10,09,0,00,0,00,-0,00,0,00,0,00,6,25,0,00,0,00,6,25,0,00,0,00
15234,-0,20,0,20,-10,09,0,00,-0,19,13,30,0,00,0,00,7,31,0,00,0,00,7,31,0,00,0,00
15252,-0,20,0,20,-10,09,0,00,-0,19,13,30,0,00,0,00,8,20,0,00,0,00,8,20,0,00,0,00
15270,-0,20,0,20,-10,09,0,00,-0,19,13,30,0,00,0,00,8,97,0,00,0,00,8,97,0,00,0,00
15288,-0,20,0,20,-10,00,0,00,-0,19,13,30,0,00,0,00,9,62,0,00,0,00,9,62,0,00,0,00
15309,-0,59,0,29,-10,00,-0,39,-0,10,7,00,0,00,-27,30,9,23,0,00,-4,10,9,23,0,00,-4,10
15341,-0,59,0,59,-10,00,-0,39,0,20,-14,00,0,00,-27,30,5,74,0,00,-7,58,5,74,0,00,-7,58
15371,-0,78,0,29,-9,70,-0,58,-0,10,7,00,0,00,-40,60,5,93,0,00,-12,53,5,93,0,00,-12,53
15397,-1,08,0,88,-10,88,-0,88,0,49,-34,30,0,00,-61,60,-0,10,0,00,-19,89,-0,10,0,00,-19,89
15428,-1,08,0,69,-10,68,-0,88,0,30,-21,00,0,00,-61,60,-3,24,0,00,-26,15,-3,24,0,00,-26,15
15454,-1,57,0,69,-9,70,-1,37,0,30,-21,00,0,00,-95,90,-5,90,0,00,-36,61,-5,90,0,00,-36,61
15477,-1,57,0,59,-9,60,-1,37,0,20,-14,00,0,00,-95,90,-7,12,0,00,-45,50,-7,12,0,00,-45,50
15502,-1,86,0,59,-10,00,-1,66,0,20,-14,00,0,00,-116,20,-8,15,0,00,-56,11,-8,15,0,00,-56,11
15527,-2,16,0,59,-10,00,-1,96,0,20,-14,00,0,00,-137,20,-9,03,0,00,-68,27,-9,03,0,00,-68,27
15565,-2,16,0,59,-10,39,-1,96,0,20,-14,00,0,00,-137,20,-9,77,0,00,-78,61,-9,77,0,00,-78,61
15592,-2,45,0,59,-9,80,-2,25,0,20,-14,00,0,00,-157,50,-10,41,0,00,-90,44,-10,41,0,00,-90,00
15613,-2,45,0,78,-9,80,-2,25,0,39,-27,30,0,00,-157,50,-12,94,0,00,-100,50,-12,94,0,00,-90,00
15634,-2,45,0,69,-9,70,-2,25,0,30,-21,00,0,00,-157,50,-14,15,0,00,-109,05,-14,15,0,00,-90,00
15664,-2,45,0,69,-9,90,-2,25,0,30,-21,00,0,00,-157,50,-15,18,0,00,-116,32,-15,18,0,00,-90,00
15696,-2,94,0,69,-9,90,-2,74,0,30,-21,00,0,00,-191,80,-16,05,0,00,-127,64,-16,05,0,00,-90,00
15720,-2,94,0,39,-9,60,-2,74,0,00,-0,00,0,00,-191,80,-13,64,0,00,-137,27,-13,64,0,00,-90,00
15775,-3,04,0,39,-9,60,-2,84,0,00,-0,00,0,00,-198,80,-11,60,0,00,-146,50,-11,60,0,00,-90,00
15813,-3,43,0,39,-9,70,-3,23,0,00,-0,00,0,00,-226,10,-9,86,0,00,-158,44,-9,86,0,00,-90,00
15846,-3,53,0,29,-9,70,-3,33,-0,10,7,00,0,00,-233,10,-7,33,0,00,-169,64,-7,33,0,00,-90,00
15879,-3,53,0,29,-9,21,-3,33,-0,10,7,00,0,00,-233,10,-5,18,0,00,-179,16,-5,18,0,00,-90,00
15982,-3,53,0,29,-9,31,-3,33,-0,10,7,00,0,00,-233,10,-3,35,0,00,-187,25,-3,35,0,00,-90,00
16117,-3,53,0,20,-9,21,-3,33,-0,19,13,30,0,00,-233,10,-0,85,0,00,-194,12,-0,85,0,00,-90,00
16157,-3,43,0,20,-9,90,-3,23,-0,19,13,30,0,00,-226,10,1,27,0,00,-198,92,1,27,0,00,-90,00
16200,-2,74,0,29,-10,00,-2,54,-0,10,7,00,0,00,-177,80,2,13,0,00,-195,75,2,13,0,00,-90,00
16241,-2,74,0,49,-9,41,-2,54,0,10,-7,00,0,00,-177,80,0,76,0,00,-193,06,0,76,0,00,-90,00
16350,-2,65,0,59,-10,29,-2,45,0,20,-14,00,0,00,-171,50,-1,45,0,00,-189,83,-1,45,0,00,-90,00
16390,-1,57,0,88,-10,19,-1,37,0,49,-34,30,0,00,-95,90,-6,38,0,00,-175,74,-6,38,0,00,-90,00
16416,-1,37,0,78,-10,00,-1,17,0,39,-27,30,0,00,-81,90,-9,52,0,00,-161,66,-9,52,0,00,-90,00
16441,-1,37,0,78,-10,29,-1,17,0,39,-27,30,0,00,-81,90,-12,19,0,00,-149,70,-12,19,0,00,-90,00
16459,-1,27,0,78,-10,00,-1,07,0,39,-27,30,0,00,-74,90,-14,45,0,00,-138,48,-14,45,0,00,-90,00
16489,-1,08,0,59,-10,00,-0,88,0,20,-14,00,0,00,-61,60,-14,39,0,00,-126,95,-14,39,0,00,-90,00
16519,-0,78,0,59,-9,80,-0,58,0,20,-14,00,0,00,-40,60,-14,33,0,00,-113,99,-14,33,0,00,-90,00
16538,-0,78,0,59,-9,80,-0,58,0,20,-14,00,0,00,-40,60,-14,28,0,00,-102,99,-14,28,0,00,-90,00
16606,-0,78,0,49,-9,90,-0,58,0,10,-7,00,0,00,-40,60,-13,19,0,00,-93,63,-13,19,0,00,-90,00
16658,-0,59,0,49,-10,39,-0,39,0,10,-7,00,0,00,-27,30,-12,26,0,00,-83,68,-12,26,0,00,-83,68
16692,-0,29,0,69,-10,49,-0,09,0,30,-21,00,0,00,-6,30,-13,57,0,00,-72,07,-13,57,0,00,-72,07
16749,-0,29,0,59,-10,00,-0,09,0,20,-14,00,0,00,-6,30,-13,63,0,00,-62,21,-13,63,0,00,-62,21
16824,-0,29,0,49,-9,90,-0,09,0,10,-7,00,0,00,-6,30,-12,64,0,00,-53,82,-12,64,0,00,-53,82
16885,-0,20,0,39,-10,00,0,00,0,00,-0,00,0,00,0,00,-10,74,0,00,-45,75,-10,74,0,00,-45,75
16931,0,00,0,29,-10,00,0,20,-0,10,7,00,0,00,14,00,-8,08,0,00,-36,78,-8,08,0,00,-36,78
17030,-0,20,0,39,-10,09,0,00,0,00,-0,00,0,00,0,00,-6,87,0,00,-31,27,-6,87,0,00,-31,27
17052,0,00,0,39,-10,09,0,20,0,00,-0,00,0,00,14,00,-5,84,0,00,-24,48,-5,84,0,00,-24,48
17068,0,00,0,39,-10,09,0,20,0,00,-0,00,0,00,14,00,-4,96,0,00,-18,71,-4,96,0,00,-18,71
17084,0,00,0,39,-10,09,0,20,0,00,-0,00,0,00,14,00,-4,22,0,00,-13,80,-4,22,0,00,-13,80
17100,0,00,0,39,-10,29,0,20,0,00,-0,00,0,00,14,00,-3,59,0,00,-9,63,-3,59,0,00,-9,63
17118,0,00,0,39,-10,09,0,20,0,00,-0,00,0,00,14,00,-3,05,0,00,-6,09,-3,05,0,00,-6,09
17135,0,00,0,39,-10,09,0,20,0,00,-0,00,0,00,14,00,-2,59,0,00,-3,07,-2,59,0,00,-3,07
17154,0,00,0,39,-10,09,0,20,0,00,-0,00,0,00,14,00,-2,20,0,00,-0,51,-2,20,0,00,-0,51
17170,0,20,0,39,-10,09,0,40,0,00,-0,00,0,00,28,00,-1,87,0,00,3,77,-1,87,0,00,3,77
17186,0,20,0,39,-10,09,0,40,0,00,-0,00,0,00,28,00,-1,59,0,00,7,40,-1,59,0,00,7,40
17202,0,00,0,39,-10,09,0,20,0,00,-0,00,0,00,14,00,-1,35,0,00,8,39,-1,35,0,00,8,39
17218,0,00,0,29,-10,00,0,20,-0,10,7,00,0,00,14,00,-0,10,0,00,9,23,-0,10,0,00,9,23
17234,0,20,0,29,-10,00,0,40,-0,10,7,00,0,00,28,00,0,97,0,00,12,05,0,97,0,00,12,05
17250,0,20,0,49,-10,19,0,40,0,10,-7,00,0,00,28,00,-0,23,0,00,14,44,-0,23,0,00,14,44
17267,0,20,0,49,-10,19,0,40,0,10,-7,00,0,00,28,00,-1,25,0,00,16,47,-1,25,0,00,16,47
17283,0,00,0,29,-10,00,0,20,-0,10,7,00,0,00,14,00,-0,01,0,00,16,10,-0,01,0,00,16,10
17301,0,00,0,29,-10,09,0,20,-0,10,7,00,0,00,14,00,1,04,0,00,15,79,1,04,0,00,15,79
17320,0,00,0,39,-10,09,0,20,0,00,-0,00,0,00,14,00,0,89,0,00,15,52,0,89,0,00,15,52
17343,0,00,0,39,-10,29,0,20,0,00,-0,00,0,00,14,00,0,75,0,00,15,29,0,75,0,00,15,29
17368,0,20,0,39,-10,09,0,40,0,00,-0,00,0,00,28,00,0,64,0,00,17,20,0,64,0,00,17,20
17396,0,20,0,39,-10,09,0,40,0,00,-0,00,0,00,28,00,0,54,0,00,18,82,0,54,0,00,18,82
17421,0,20,0,39,-10,00,0,40,0,00,-0,00,0,00,28,00,0,46,0,00,20,20,0,46,0,00,20,20
17460,0,29,0,49,-10,49,0,49,0,10,-7,00,0,00,34,30,-0,66,0,00,22,31,-0,66,0,00,22,31
17478,0,78,0,49,-10,49,0,98,0,10,-7,00,0,00,68,60,-1,61,0,00,29,25,-1,61,0,00,29,25
17500,0,59,0,49,-10,49,0,79,0,10,-7,00,0,00,55,30,-2,42,0,00,33,16,-2,42,0,00,33,16
17517,0,59,0,20,-9,90,0,79,-0,19,13,30,0,00,55,30,-0,06,0,00,36,48,-0,06,0,00,36,48
17535,0,88,0,20,-9,90,1,08,-0,19,13,30,0,00,75,60,1,94,0,00,42,35,1,94,0,00,42,35
17558,1,08,0,59,-10,00,1,28,0,20,-14,00,0,00,89,60,-0,45,0,00,49,44,-0,45,0,00,49,44
17575,1,08,0,59,-10,00,1,28,0,20,-14,00,0,00,89,60,-2,48,0,00,55,46,-2,48,0,00,55,46
17599,1,37,0,59,-10,00,1,57,0,20,-14,00,0,00,109,90,-4,21,0,00,63,63,-4,21,0,00,63,63
17620,1,67,0,88,-10,19,1,87,0,49,-34,30,0,00,130,90,-8,72,0,00,73,72,-8,72,0,00,73,72
17639,1,67,0,69,-9,90,1,87,0,30,-21,00,0,00,130,90,-10,56,0,00,82,30,-10,56,0,00,82,30
17682,2,35,0,29,-10,00,2,55,-0,10,7,00,0,00,178,50,-7,93,0,00,96,73,-7,93,0,00,90,00
17708,2,65,0,49,-9,21,2,85,0,10,-7,00,0,00,199,50,-7,79,0,00,112,14,-7,79,0,00,90,00
17731,3,04,0,59,-9,60,3,24,0,20,-14,00,0,00,226,80,-8,72,0,00,129,34,-8,72,0,00,90,00
17754,3,04,0,59,-9,70,3,24,0,20,-14,00,0,00,226,80,-9,51,0,00,143,96,-9,51,0,00,90,00
17777,3,23,0,69,-9,70,3,43,0,30,-21,00,0,00,240,10,-11,24,0,00,158,38,-11,24,0,00,90,00
17801,3,53,0,59,-9,41,3,73,0,20,-14,00,0,00,261,10,-11,65,0,00,173,79,-11,65,0,00,90,00
17817,3,53,0,59,-9,41,3,73,0,20,-14,00,0,00,261,10,-12,00,0,00,186,89,-12,00,0,00,90,00
17834,3,53,0,59,-9,41,3,73,0,20,-14,00,0,00,261,10,-12,30,0,00,198,02,-12,30,0,00,90,00
17854,3,53,0,98,-9,60,3,73,0,59,-41,30,0,00,261,10,-16,65,0,00,207,48,-16,65,0,00,90,00
17870,3,53,0,98,-9,31,3,73,0,59,-41,30,0,00,261,10,-20,35,0,00,215,52,-20,35,0,00,90,00
17887,3,72,0,98,-9,31,3,92,0,59,-41,30,0,00,274,40,-23,49,0,00,224,35,-23,49,0,00,90,00
17902,3,72,0,98,-9,41,3,92,0,59,-41,30,0,00,274,40,-26,16,0,00,231,86,-26,16,0,00,90,00
17918,4,02,0,59,-9,41,4,22,0,20,-14,00,0,00,295,40,-24,34,0,00,241,39,-24,34,0,00,90,00
17934,4,02,0,88,-9,70,4,22,0,49,-34,30,0,00,295,40,-25,83,0,00,249,49,-25,83,0,00,90,00
17951,4,21,0,88,-9,70,4,41,0,49,-34,30,0,00,308,70,-27,10,0,00,258,37,-27,10,0,00,90,00
17967,4,21,1,08,-9,70,4,41,0,69,-48,30,0,00,308,70,-30,28,0,00,265,92,-30,28,0,00,90,00
17987,4,02,1,08,-9,70,4,22,0,69,-48,30,0,00,295,40,-32,99,0,00,270,34,-32,99,0,00,90,00
18003,4,02,0,39,-8,92,4,22,0,00,-0,00,0,00,295,40,-28,04,0,00,274,10,-28,04,0,00,90,00
18019,4,02,0,39,-9,02,4,22,0,00,-0,00,0,00,295,40,-23,83,0,00,277,30,-23,83,0,00,90,00
18039,4,21,0,49,-9,02,4,41,0,10,-7,00,0,00,308,70,-21,31,0,00,282,01,-21,31,0,00,90,00
18055,4,21,0,59,-9,41,4,41,0,20,-14,00,0,00,308,70,-20,21,0,00,286,01,-20,21,0,00,90,00
18073,4,21,0,59,-9,41,4,41,0,20,-14,00,0,00,308,70,-19,28,0,00,289,41,-19,28,0,00,90,00
18094,4,21,0,59,-9,41,4,41,0,20,-14,00,0,00,308,70,-18,49,0,00,292,31,-18,49,0,00,90,00
18111,4,21,0,59,-8,72,4,41,0,20,-14,00,0,00,308,70,-17,81,0,00,294,77,-17,81,0,00,90,00
18128,4,21,0,49,-8,72,4,41,0,10,-7,00,0,00,308,70,-16,19,0,00,296,86,-16,19,0,00,90,00
18144,4,21,0,78,-9,60,4,41,0,39,-27,30,0,00,308,70,-17,86,0,00,298,63,-17,86,0,00,90,00
18162,4,02,0,78,-9,60,4,22,0,39,-27,30,0,00,295,40,-19,27,0,00,298,15,-19,27,0,00,90,00
18182,3,72,0,49,-9,02,3,92,0,10,-7,00,0,00,274,40,-17,43,0,00,294,59,-17,43,0,00,90,00
18200,3,72,0,49,-9,51,3,92,0,10,-7,00,0,00,274,40,-15,87,0,00,291,56,-15,87,0,00,90,00
18223,3,82,0,88,-9,51,4,02,0,49,-34,30,0,00,281,40,-18,63,0,00,290,03,-18,63,0,00,90,00
18242,3,82,0,88,-9,51,4,02,0,49,-34,30,0,00,281,40,-20,98,0,00,288,74,-20,98,0,00,90,00
18262,3,82,0,88,-9,41,4,02,0,49,-34,30,0,00,281,40,-22,98,0,00,287,64,-22,98,0,00,90,00
18278,3,82,0,78,-9,41,4,02,0,39,-27,30,0,00,281,40,-23,63,0,00,286,70,-23,63,0,00,90,00
18295,3,82,0,39,-9,11,4,02,0,00,-0,00,0,00,281,40,-20,08,0,00,285,91,-20,08,0,00,90,00
18313,3,72,0,39,-9,11,3,92,0,00,-0,00,0,00,274,40,-17,07,0,00,284,18,-17,07,0,00,90,00
18329,3,82,0,59,-9,60,4,02,0,20,-14,00,0,00,281,40,-16,61,0,00,283,76,-16,61,0,00,90,00
18345,3,82,0,59,-9,60,4,02,0,20,-14,00,0,00,281,40,-16,22,0,00,283,41,-16,22,0,00,90,00
18362,3,82,0,98,-10,49,4,02,0,59,-41,30,0,00,281,40,-19,98,0,00,283,11,-19,98,0,00,90,00
18380,3,82,0,98,-9,51,4,02,0,59,-41,30,0,00,281,40,-23,18,0,00,282,85,-23,18,0,00,90,00
18396,3,43,0,49,-9,51,3,63,0,10,-7,00,0,00,254,10,-20,75,0,00,278,54,-20,75,0,00,90,00
18414,3,43,0,29,-9,21,3,63,-0,10,7,00,0,00,254,10,-16,59,0,00,274,87,-16,59,0,00,90,00
18433,3,04,0,29,-9,21,3,24,-0,10,7,00,0,00,226,80,-13,05,0,00,267,66,-13,05,0,00,90,00
18449,2,45,0,49,-9,51,2,65,0,10,-7,00,0,00,185,50,-12,14,0,00,255,34,-12,14,0,00,90,00
18465,2,45,0,49,-9,51,2,65,0,10,-7,00,0,00,185,50,-11,37,0,00,244,86,-11,37,0,00,90,00
18482,1,96,0,59,-10,00,2,16,0,20,-14,00,0,00,151,20,-11,77,0,00,230,81,-11,77,0,00,90,00
18498,1,96,0,59,-9,41,2,16,0,20,-14,00,0,00,151,20,-12,10,0,00,218,87,-12,10,0,00,90,00
18514,1,86,0,10,-9,41,2,06,-0,29,20,30,0,00,144,20,-7,24,0,00,207,67,-7,24,0,00,90,00
18530,1,86,0,10,-9,11,2,06,-0,29,20,30,0,00,144,20,-3,11,0,00,198,15,-3,11,0,00,90,00
18551,1,86,0,00,-9,11,2,06,-0,39,27,30,0,00,144,20,1,45,0,00,190,06,1,45,0,00,90,00
18568,1,57,0,29,-10,19,1,77,-0,10,7,00,0,00,123,90,2,28,0,00,180,13,2,28,0,00,90,00
18585,1,57,0,29,-10,19,1,77,-0,10,7,00,0,00,123,90,2,99,0,00,171,70,2,99,0,00,90,00
18601,1,27,0,39,-10,09,1,47,0,00,-0,00,0,00,102,90,2,54,0,00,161,38,2,54,0,00,90,00
18617,1,27,0,39,-10,09,1,47,0,00,-0,00,0,00,102,90,2,16,0,00,152,61,2,16,0,00,90,00
18635,1,27,0,20,-9,90,1,47,-0,19,13,30,0,00,102,90,3,83,0,00,145,15,3,83,0,00,90,00
18652,1,27,0,20,-9,90,1,47,-0,19,13,30,0,00,102,90,5,25,0,00,138,81,5,25,0,00,90,00
18668,1,27,0,20,-9,90,1,47,-0,19,13,30,0,00,102,90,6,46,0,00,133,43,6,46,0,00,90,00
18685,1,27,0,29,-10,00,1,47,-0,10,7,00,0,00,102,90,6,54,0,00,128,85,6,54,0,00,90,00
18703,1,08,0,29,-10,00,1,28,-0,10,7,00,0,00,89,60,6,61,0,00,122,96,6,61,0,00,90,00
18719,0,49,0,59,-10,98,0,69,0,20,-14,00,0,00,48,30,3,52,0,00,111,76,3,52,0,00,90,00
18735,0,49,0,59,-10,98,0,69,0,20,-14,00,0,00,48,30,0,89,0,00,102,24,0,89,0,00,90,00
18752,0,59,0,59,-10,00,0,79,0,20,-14,00,0,00,55,30,-1,34,0,00,95,20,-1,34,0,00,90,00
18768,0,59,0,59,-10,00,0,79,0,20,-14,00,0,00,55,30,-3,24,0,00,89,22,-3,24,0,00,89,22
18785,0,59,0,59,-10,00,0,79,0,20,-14,00,0,00,55,30,-4,86,0,00,84,13,-4,86,0,00,84,13
18801,0,59,0,59,-10,39,0,79,0,20,-14,00,0,00,55,30,-6,23,0,00,79,80,-6,23,0,00,79,80
18816,0,49,0,59,-10,39,0,69,0,20,-14,00,0,00,48,30,-7,39,0,00,75,08,-7,39,0,00,75,08
18833,0,49,0,69,-9,90,0,69,0,30,-21,00,0,00,48,30,-9,43,0,00,71,06,-9,43,0,00,71,06
18849,0,29,0,69,-9,90,0,49,0,30,-21,00,0,00,34,30,-11,17,0,00,65,55,-11,17,0,00,65,55
18868,0,29,0,49,-9,90,0,49,0,10,-7,00,0,00,34,30,-10,54,0,00,60,86,-10,54,0,00,60,86
18884,0,29,0,49,-9,90,0,49,0,10,-7,00,0,00,34,30,-10,01,0,00,56,88,-10,01,0,00,56,88
18901,0,29,0,49,-9,90,0,49,0,10,-7,00,0,00,34,30,-9,56,0,00,53,49,-9,56,0,00,53,49
18917,0,29,0,49,-10,09,0,49,0,10,-7,00,0,00,34,30,-9,18,0,00,50,61,-9,18,0,00,50,61
18935,0,00,0,69,-10,09,0,20,0,30,-21,00,0,00,14,00,-10,95,0,00,45,12,-10,95,0,00,45,12
18951,0,00,0,69,-10,09,0,20,0,30,-21,00,0,00,14,00,-12,46,0,00,40,45,-12,46,0,00,40,45
18967,-0,20,0,39,-10,09,0,00,0,00,-0,00,0,00,0,00,-10,59,0,00,34,38,-10,59,0,00,34,38
18983,-0,20,0,78,-10,29,0,00,0,39,-27,30,0,00,0,00,-13,10,0,00,29,23,-13,10,0,00,29,23
18998,-0,20,0,78,-10,29,0,00,0,39,-27,30,0,00,0,00,-15,23,0,00,24,84,-15,23,0,00,24,84
19014,-0,20,0,78,-10,00,0,00,0,39,-27,30,0,00,0,00,-17,04,0,00,21,12,-17,04,0,00,21,12
19030,-0,29,0,78,-10,00,-0,09,0,39,-27,30,0,00,-6,30,-18,58,0,00,17,00,-18,58,0,00,17,00
19046,-0,29,0,88,-10,39,-0,09,0,49,-34,30,0,00,-6,30,-20,94,0,00,13,51,-20,94,0,00,13,51
19063,-0,20,0,88,-10,39,0,00,0,49,-34,30,0,00,0,00,-22,94,0,00,11,48,-22,94,0,00,11,48
19079,-0,20,0,78,-10,29,0,00,0,39,-27,30,0,00,0,00,-23,59,0,00,9,76,-23,59,0,00,9,76
19096,-0,20,0,78,-10,29,0,00,0,39,-27,30,0,00,0,00,-24,15,0,00,8,30,-24,15,0,00,8,30
19112,-0,20,0,78,-10,29,0,00,0,39,-27,30,0,00,0,00,-24,62,0,00,7,05,-24,62,0,00,7,05
19128,-0,20,0,78,-10,29,0,00,0,39,-27,30,0,00,0,00,-25,02,0,00,5,99,-25,02,0,00,5,99
19144,-0,49,0,59,-10,00,-0,29,0,20,-14,00,0,00,-20,30,-23,37,0,00,2,05,-23,37,0,00,2,05
19162,-0,49,0,59,-10,00,-0,29,0,20,-14,00,0,00,-20,30,-21,96,0,00,-1,30,-21,96,0,00,-1,30
19179,-0,49,0,59,-10,00,-0,29,0,20,-14,00,0,00,-20,30,-20,77,0,00,-4,15,-20,77,0,00,-4,15
19195,-0,49,0,49,-10,19,-0,29,0,10,-7,00,0,00,-20,30,-18,70,0,00,-6,57,-18,70,0,00,-6,57
19211,-0,49,0,49,-10,19,-0,29,0,10,-7,00,0,00,-20,30,-16,95,0,00,-8,63,-16,95,0,00,-8,63
19227,-0,49,0,49,-10,19,-0,29,0,10,-7,00,0,00,-20,30,-15,46,0,00,-10,38,-15,46,0,00,-10,38
19248,-0,49,0,49,-10,00,-0,29,0,10,-7,00,0,00,-20,30,-14,19,0,00,-11,87,-14,19,0,00,-11,87
19264,-0,49,0,49,-9,90,-0,29,0,10,-7,00,0,00,-20,30,-13,11,0,00,-13,14,-13,11,0,00,-13,14
19280,-0,49,0,49,-10,09,-0,29,0,10,-7,00,0,00,-20,30,-12,19,0,00,-14,21,-12,19,0,00,-14,21
19298,-0,49,0,69,-10,09,-0,29,0,30,-21,00,0,00,-20,30,-13,51,0,00,-15,12,-13,51,0,00,-15,12
19316,-0,49,0,59,-10,39,-0,29,0,20,-14,00,0,00,-20,30,-13,59,0,00,-15,90,-13,59,0,00,-15,90
19335,-0,49,0,59,-10,39,-0,29,0,20,-14,00,0,00,-20,30,-13,65,0,00,-16,56,-13,65,0,00,-16,56
19357,-0,49,0,78,-10,29,-0,29,0,39,-27,30,0,00,-20,30,-15,70,0,00,-17,12,-15,70,0,00,-17,12
19380,-0,49,0,69,-10,09,-0,29,0,30,-21,00,0,00,-20,30,-16,49,0,00,-17,60,-16,49,0,00,-17,60
19412,-0,59,0,88,-10,39,-0,39,0,49,-34,30,0,00,-27,30,-19,16,0,00,-19,05,-19,16,0,00,-19,05
19434,-0,49,0,88,-10,00,-0,29,0,49,-34,30,0,00,-20,30,-21,43,0,00,-19,24,-21,43,0,00,-19,24
19456,-0,49,0,59,-10,00,-0,29,0,20,-14,00,0,00,-20,30,-20,32,0,00,-19,40,-20,32,0,00,-19,40
19478,-0,49,0,69,-10,09,-0,29,0,30,-21,00,0,00,-20,30,-20,42,0,00,-19,53,-20,42,0,00,-19,53
19498,-0,49,0,69,-10,09,-0,29,0,30,-21,00,0,00,-20,30,-20,51,0,00,-19,65,-20,51,0,00,-19,65
19515,-0,49,0,69,-10,09,-0,29,0,30,-21,00,0,00,-20,30,-20,58,0,00,-19,75,-20,58,0,00,-19,75
19535,-0,49,0,69,-10,09,-0,29,0,30,-21,00,0,00,-20,30,-20,64,0,00,-19,83,-20,64,0,00,-19,83
19552,-0,49,0,69,-9,90,-0,29,0,30,-21,00,0,00,-20,30,-20,70,0,00,-19,90,-20,70,0,00,-19,90
19568,-0,49,0,49,-9,90,-0,29,0,10,-7,00,0,00,-20,30,-18,64,0,00,-19,96,-18,64,0,00,-19,96
19583,-0,49,0,49,-10,09,-0,29,0,10,-7,00,0,00,-20,30,-16,90,0,00,-20,01,-16,90,0,00,-20,01
19599,-0,29,0,69,-10,09,-0,09,0,30,-21,00,0,00,-6,30,-17,51,0,00,-17,95,-17,51,0,00,-17,95
19614,-0,29,0,29,-10,00,-0,09,-0,10,7,00,0,00,-6,30,-13,84,0,00,-16,21,-13,84,0,00,-16,21
19630,-0,49,0,29,-10,00,-0,29,-0,10,7,00,0,00,-20,30,-10,71,0,00,-16,82,-10,71,0,00,-16,82
19646,-0,49,0,49,-10,19,-0,29,0,10,-7,00,0,00,-20,30,-10,15,0,00,-17,34,-10,15,0,00,-17,34
19662,-0,49,0,49,-10,19,-0,29,0,10,-7,00,0,00,-20,30,-9,68,0,00,-17,79,-9,68,0,00,-17,79
19678,-0,49,0,59,-10,39,-0,29,0,20,-14,00,0,00,-20,30,-10,33,0,00,-18,16,-10,33,0,00,-18,16
19695,-0,49,0,59,-10,39,-0,29,0,20,-14,00,0,00,-20,30,-10,88,0,00,-18,48,-10,88,0,00,-18,48
19711,-0,49,0,39,-10,09,-0,29,0,00,-0,00,0,00,-20,30,-9,25,0,00,-18,76,-9,25,0,00,-18,76
19727,-0,49,0,39,-10,09,-0,29,0,00,-0,00,0,00,-20,30,-7,86,0,00,-18,99,-7,86,0,00,-18,99
19744,-0,49,0,69,-10,09,-0,29,0,30,-21,00,0,00,-20,30,-9,83,0,00,-19,18,-9,83,0,00,-19,18
19760,-0,49,0,69,-10,39,-0,29,0,30,-21,00,0,00,-20,30,-11,51,0,00,-19,35,-11,51,0,00,-19,35
19777,-0,29,0,59,-10,39,-0,09,0,20,-14,00,0,00,-6,30,-11,88,0,00,-17,39,-11,88,0,00,-17,39
19795,-0,29,0,29,-10,19,-0,09,-0,10,7,00,0,00,-6,30,-9,05,0,00,-15,73,-9,05,0,00,-15,73
19812,-0,29,0,29,-10,19,-0,09,-0,10,7,00,0,00,-6,30,-6,64,0,00,-14,32,-6,64,0,00,-14,32
19828,-0,29,0,39,-10,09,-0,09,0,00,-0,00,0,00,-6,30,-5,64,0,00,-13,11,-5,64,0,00,-13,11
19846,-0,29,0,39,-10,09,-0,09,0,00,-0,00,0,00,-6,30,-4,80,0,00,-12,09,-4,80,0,00,-12,09
19862,-0,20,0,49,-10,19,0,00,0,10,-7,00,0,00,0,00,-5,13,0,00,-10,28,-5,13,0,00,-10,28
19878,-0,20,0,49,-10,58,0,00,0,10,-7,00,0,00,0,00,-5,41,0,00,-8,74,-5,41,0,00,-8,74
19895,0,20,0,78,-10,58,0,40,0,39,-27,30,0,00,28,00,-8,69,0,00,-3,23,-8,69,0,00,-3,23
19911,0,20,0,78,-9,80,0,40,0,39,-27,30,0,00,28,00,-11,48,0,00,1,46,-11,48,0,00,1,46
19927,0,59,0,39,-9,80,0,79,0,00,-0,00,0,00,55,30,-9,76,0,00,9,53,-9,76,0,00,9,53
19944,0,59,0,39,-9,80,0,79,0,00,-0,00,0,00,55,30,-8,30,0,00,16,40,-8,30,0,00,16,40
19960,0,59,0,39,-9,80,0,79,0,00,-0,00,0,00,55,30,-7,05,0,00,22,23,-7,05,0,00,22,23
19978,0,59,0,20,-9,90,0,79,-0,19,13,30,0,00,55,30,-4,00,0,00,27,19,-4,00,0,00,27,19
19996,0,59,0,20,-9,90,0,79,-0,19,13,30,0,00,55,30,-1,40,0,00,31,41,-1,40,0,00,31,41
20012,0,59,0,20,-9,90,0,79,-0,19,13,30,0,00,55,30,0,80,0,00,34,99,0,80,0,00,34,99
20028,0,59,0,20,-10,49,0,79,-0,19,13,30,0,00,55,30,2,68,0,00,38,04,2,68,0,00,38,04
20044,1,37,0,39,-10,09,1,57,0,00,-0,00,0,00,109,90,2,27,0,00,48,82,2,27,0,00,48,82
20060,1,37,0,39,-10,09,1,57,0,00,-0,00,0,00,109,90,1,93,0,00,57,98,1,93,0,00,57,98
20077,1,67,0,39,-10,09,1,87,0,00,-0,00,0,00,130,90,1,64,0,00,68,92,1,64,0,00,68,92
20094,1,67,0,49,-10,19,1,87,0,10,-7,00,0,00,130,90,0,35,0,00,78,22,0,35,0,00,78,22
20110,1,67,0,49,-10,19,1,87,0,10,-7,00,0,00,130,90,-0,76,0,00,86,12,-0,76,0,00,86,12
20128,2,16,0,29,-9,70,2,36,-0,10,7,00,0,00,165,20,0,41,0,00,97,98,0,41,0,00,90,00
20147,2,16,0,29,-9,70,2,36,-0,10,7,00,0,00,165,20,1,40,0,00,108,06,1,40,0,00,90,00
20164,2,35,0,10,-9,80,2,55,-0,29,20,30,0,00,178,50,4,23,0,00,118,63,4,23,0,00,90,00
20180,2,35,0,10,-9,80,2,55,-0,29,20,30,0,00,178,50,6,64,0,00,127,61,6,64,0,00,90,00
20198,2,45,0,39,-9,80,2,65,0,00,-0,00,0,00,185,50,5,65,0,00,136,29,5,65,0,00,90,00
20214,2,45,0,29,-9,70,2,65,-0,10,7,00,0,00,185,50,5,85,0,00,143,67,5,85,0,00,90,00
20231,2,45,0,29,-9,70,2,65,-0,10,7,00,0,00,185,50,6,02,0,00,149,95,6,02,0,00,90,00
20247,2,45,0,10,-9,41,2,65,-0,29,20,30,0,00,185,50,8,16,0,00,155,28,8,16,0,00,90,00
20265,2,74,0,10,-9,41,2,94,-0,29,20,30,0,00,205,80,9,98,0,00,162,86,9,98,0,00,90,00
20286,2,74,0,10,-9,80,2,94,-0,29,20,30,0,00,205,80,11,53,0,00,169,30,11,53,0,00,90,00
20302,2,74,0,10,-10,19,2,94,-0,29,20,30,0,00,205,80,12,85,0,00,174,77,12,85,0,00,90,00
20318,2,94,0,29,-10,19,3,14,-0,10,7,00,0,00,219,80,11,97,0,00,181,53,11,97,0,00,90,00
20339,2,94,0,20,-9,90,3,14,-0,19,13,30,0,00,219,80,12,17,0,00,187,27,12,17,0,00,90,00
20366,2,94,0,20,-9,90,3,14,-0,19,13,30,0,00,219,80,12,34,0,00,192,15,12,34,0,00,90,00
20394,2,94,0,20,-10,00,3,14,-0,19,13,30,0,00,219,80,12,48,0,00,196,30,12,48,0,00,90,00
20418,2,94,0,29,-10,00,3,14,-0,10,7,00,0,00,219,80,11,66,0,00,199,82,11,66,0,00,90,00
20450,3,04,0,49,-10,49,3,24,0,10,-7,00,0,00,226,80,8,86,0,00,203,87,8,86,0,00,90,00
20474,3,04,0,20,-10,29,3,24,-0,19,13,30,0,00,226,80,9,53,0,00,207,31,9,53,0,00,90,00
20495,2,94,0,00,-10,09,3,14,-0,39,27,30,0,00,219,80,12,19,0,00,209,18,12,19,0,00,90,00
20511,2,94,0,00,-9,90,3,14,-0,39,27,30,0,00,219,80,14,46,0,00,210,77,14,46,0,00,90,00
20528,2,94,0,00,-9,90,3,14,-0,39,27,30,0,00,219,80,16,39,0,00,212,13,16,39,0,00,90,00
20544,2,94,-0,39,-9,80,3,14,-0,78,54,60,0,00,219,80,22,12,0,00,213,28,22,12,0,00,90,00
20561,2,94,-0,39,-9,80,3,14,-0,78,54,60,0,00,219,80,26,99,0,00,214,26,26,99,0,00,90,00
20579,2,74,-0,78,-9,90,2,94,-1,17,81,90,0,00,205,80,35,23,0,00,212,99,35,23,0,00,90,00
20603,2,74,-0,78,-9,60,2,94,-1,17,81,90,0,00,205,80,42,23,0,00,211,91,42,23,0,00,90,00
20623,2,65,-1,18,-9,60,2,85,-1,57,109,90,0,00,199,50,52,38,0,00,210,05,52,38,0,00,90,00
20647,2,45,-1,57,-9,60,2,65,-1,96,137,20,0,00,185,50,65,10,0,00,206,37,65,10,0,00,90,00
20670,2,45,-1,86,-9,60,2,65,-2,25,157,50,0,00,185,50,78,96,0,00,203,24,78,96,0,00,90,00
20687,2,45,-1,86,-9,60,2,65,-2,25,157,50,0,00,185,50,90,74,0,00,200,58,90,00,0,00,90,00
20704,2,45,-1,86,-9,60,2,65,-2,25,157,50,0,00,185,50,100,76,0,00,198,31,90,00,0,00,90,00
20724,2,45,-2,06,-9,60,2,65,-2,45,171,50,0,00,185,50,111,37,0,00,196,39,90,00,0,00,90,00
20754,2,16,-2,45,-8,92,2,36,-2,84,198,80,0,00,165,20,124,48,0,00,191,71,90,00,0,00,90,00
20770,2,16,-2,45,-8,92,2,36,-2,84,198,80,0,00,165,20,135,63,0,00,187,74,90,00,0,00,90,00
20786,2,16,-2,65,-9,31,2,36,-3,04,212,80,0,00,165,20,147,21,0,00,184,36,90,00,0,00,90,00
20802,1,96,-2,65,-9,31,2,16,-3,04,212,80,0,00,151,20,157,04,0,00,179,38,90,00,0,00,90,00
20818,1,96,-2,65,-9,31,2,16,-3,04,212,80,0,00,151,20,165,41,0,00,175,16,90,00,0,00,90,00
20836,1,96,-2,65,-9,31,2,16,-3,04,212,80,0,00,151,20,172,52,0,00,171,56,90,00,0,00,90,00
20866,1,96,-2,35,-10,39,2,16,-2,74,191,80,0,00,151,20,175,41,0,00,168,51,90,00,0,00,90,00
20898,1,96,-2,35,-8,72,2,16,-2,74,191,80,0,00,151,20,177,87,0,00,165,91,90,00,0,00,90,00
20914,1,86,-3,14,-8,72,2,06,-3,53,247,10,0,00,144,20,188,25,0,00,162,65,90,00,0,00,90,00
20930,1,86,-3,14,-9,21,2,06,-3,53,247,10,0,00,144,20,197,08,0,00,159,89,90,00,0,00,90,00
20946,1,86,-3,14,-9,21,2,06,-3,53,247,10,0,00,144,20,204,58,0,00,157,53,90,00,0,00,90,00
20962,1,86,-3,14,-9,60,2,06,-3,53,247,10,0,00,144,20,210,96,0,00,155,53,90,00,0,00,90,00
20978,1,96,-2,84,-9,60,2,16,-3,23,226,10,0,00,151,20,213,23,0,00,154,88,90,00,0,00,90,00
20994,1,96,-3,23,-8,92,2,16,-3,62,253,40,0,00,151,20,219,26,0,00,154,33,90,00,0,00,90,00
21010,1,86,-3,23,-8,92,2,06,-3,62,253,40,0,00,144,20,224,38,0,00,152,81,90,00,0,00,90,00
21026,1,86,-2,94,-9,51,2,06,-3,33,233,10,0,00,144,20,225,69,0,00,151,52,90,00,0,00,90,00
21043,1,96,-2,94,-9,51,2,16,-3,33,233,10,0,00,151,20,226,80,0,00,151,47,90,00,0,00,90,00
21074,1,67,-3,04,-9,11,1,87,-3,43,240,10,0,00,130,90,228,79,0,00,148,39,90,00,0,00,90,00
21090,1,86,-2,65,-9,11,2,06,-3,04,212,80,0,00,144,20,226,39,0,00,147,76,90,00,0,00,90,00
21106,1,86,-2,65,-9,11,2,06,-3,04,212,80,0,00,144,20,224,36,0,00,147,22,90,00,0,00,90,00
21122,1,67,-2,74,-9,21,1,87,-3,13,219,10,0,00,130,90,223,57,0,00,144,78,90,00,0,00,90,00
21138,1,67,-2,74,-9,51,1,87,-3,13,219,10,0,00,130,90,222,90,0,00,142,69,90,00,0,00,90,00
21154,1,86,-2,25,-9,51,2,06,-2,64,184,80,0,00,144,20,217,18,0,00,142,92,90,00,0,00,90,00
21170,1,86,-2,25,-10,00,2,06,-2,64,184,80,0,00,144,20,212,33,0,00,143,11,90,00,0,00,90,00
21189,1,67,-1,67,-10,00,1,87,-2,06,144,20,0,00,130,90,202,11,0,00,141,28,90,00,0,00,90,00
21219,1,67,-1,67,-10,00,1,87,-2,06,144,20,0,00,130,90,193,42,0,00,139,72,90,00,0,00,90,00
21250,1,67,-1,67,-10,00,1,87,-2,06,144,20,0,00,130,90,186,04,0,00,138,40,90,00,0,00,90,00
21268,1,86,-1,27,-9,70,2,06,-1,66,116,20,0,00,144,20,175,56,0,00,139,27,90,00,0,00,90,00
21298,1,67,-1,18,-9,60,1,87,-1,57,109,90,0,00,130,90,165,71,0,00,138,01,90,00,0,00,90,00
21314,1,67,-1,18,-9,60,1,87,-1,57,109,90,0,00,130,90,157,34,0,00,136,95,90,00,0,00,90,00
21330,1,57,-0,98,-9,70,1,77,-1,37,95,90,0,00,123,90,148,12,0,00,134,99,90,00,0,00,90,00
21346,1,57,-0,98,-9,70,1,77,-1,37,95,90,0,00,123,90,140,29,0,00,133,33,90,00,0,00,90,00
21362,1,57,-0,20,-10,29,1,77,-0,59,41,30,0,00,123,90,125,44,0,00,131,91,90,00,0,00,90,00
21378,1,57,-0,20,-10,39,1,77,-0,59,41,30,0,00,123,90,112,82,0,00,130,71,90,00,0,00,90,00
21394,1,67,-0,10,-10,39,1,87,-0,49,34,30,0,00,130,90,101,04,0,00,130,74,90,00,0,00,90,00
21412,1,67,-0,10,-10,00,1,87,-0,49,34,30,0,00,130,90,91,03,0,00,130,76,90,00,0,00,90,00
21442,1,67,0,59,-10,39,1,87,0,20,-14,00,0,00,130,90,75,28,0,00,130,78,75,28,0,00,90,00
21458,1,57,0,59,-10,39,1,77,0,20,-14,00,0,00,123,90,61,89,0,00,129,75,61,89,0,00,90,00
21474,1,57,0,88,-10,68,1,77,0,49,-34,30,0,00,123,90,47,46,0,00,128,87,47,46,0,00,90,00
21491,1,67,0,88,-10,68,1,87,0,49,-34,30,0,00,130,90,35,19,0,00,129,18,35,19,0,00,90,00
21510,1,57,0,88,-10,19,1,77,0,49,-34,30,0,00,123,90,24,77,0,00,128,39,24,77,0,00,90,00
21526,1,57,0,88,-10,19,1,77,0,49,-34,30,0,00,123,90,15,91,0,00,127,71,15,91,0,00,90,00
21543,1,57,1,18,-10,49,1,77,0,79,-55,30,0,00,123,90,5,23,0,00,127,14,5,23,0,00,90,00
21560,1,57,1,18,-10,58,1,77,0,79,-55,30,0,00,123,90,-3,85,0,00,126,65,-3,85,0,00,90,00
21576,1,37,1,27,-10,58,1,57,0,88,-61,60,0,00,109,90,-12,51,0,00,124,14,-12,51,0,00,90,00
21593,1,37,1,08,-10,19,1,57,0,69,-48,30,0,00,109,90,-17,88,0,00,122,01,-17,88,0,00,90,00
21610,1,27,1,08,-10,19,1,47,0,69,-48,30,0,00,102,90,-22,44,0,00,119,14,-22,44,0,00,90,00
21628,1,27,1,18,-10,29,1,47,0,79,-55,30,0,00,102,90,-27,37,0,00,116,70,-27,37,0,00,90,00
21647,1,27,1,18,-10,29,1,47,0,79,-55,30,0,00,102,90,-31,56,0,00,114,63,-31,56,0,00,90,00
21667,1,27,1,18,-10,29,1,47,0,79,-55,30,0,00,102,90,-35,12,0,00,112,87,-35,12,0,00,90,00
21684,1,27,1,08,-10,19,1,47,0,69,-48,30,0,00,102,90,-37,10,0,00,111,38,-37,10,0,00,90,00
21700,1,37,1,08,-10,19,1,57,0,69,-48,30,0,00,109,90,-38,78,0,00,111,16,-38,78,0,00,90,00
21718,1,37,0,78,-9,80,1,57,0,39,-27,30,0,00,109,90,-37,06,0,00,110,97,-37,06,0,00,90,00
21734,0,88,0,78,-9,80,1,08,0,39,-27,30,0,00,75,60,-35,59,0,00,105,66,-35,59,0,00,90,00
21750,1,08,0,98,-10,09,1,28,0,59,-41,30,0,00,89,60,-36,45,0,00,103,25,-36,45,0,00,90,00
21765,1,08,0,98,-10,09,1,28,0,59,-41,30,0,00,89,60,-37,18,0,00,101,20,-37,18,0,00,90,00
21782,0,88,0,98,-10,09,1,08,0,59,-41,30,0,00,75,60,-37,80,0,00,97,36,-37,80,0,00,90,00
21798,0,88,0,98,-9,90,1,08,0,59,-41,30,0,00,75,60,-38,32,0,00,94,10,-38,32,0,00,90,00
21814,0,59,0,69,-9,90,0,79,0,30,-21,00,0,00,55,30,-35,72,0,00,88,28,-35,72,0,00,88,28
21830,0,59,0,69,-9,90,0,79,0,30,-21,00,0,00,55,30,-33,51,0,00,83,33,-33,51,0,00,83,33
21846,0,59,0,69,-9,90,0,79,0,30,-21,00,0,00,55,30,-31,64,0,00,79,13,-31,64,0,00,79,13
21864,0,59,1,18,-10,29,0,79,0,79,-55,30,0,00,55,30,-35,19,0,00,75,55,-35,19,0,00,75,55
21880,0,49,1,18,-10,29,0,69,0,79,-55,30,0,00,48,30,-38,20,0,00,71,47,-38,20,0,00,71,47
21895,0,49,0,78,-9,80,0,69,0,39,-27,30,0,00,48,30,-36,57,0,00,67,99,-36,57,0,00,67,99
21911,0,29,0,78,-9,80,0,49,0,39,-27,30,0,00,34,30,-35,18,0,00,62,94,-35,18,0,00,62,94
21927,0,20,0,88,-10,19,0,40,0,49,-34,30,0,00,28,00,-35,05,0,00,57,70,-35,05,0,00,57,70
21945,0,20,0,88,-10,19,0,40,0,49,-34,30,0,00,28,00,-34,93,0,00,53,24,-34,93,0,00,53,24
21966,0,00,0,69,-9,90,0,20,0,30,-21,00,0,00,14,00,-32,84,0,00,47,36,-32,84,0,00,47,36
21985,0,00,0,69,-10,09,0,20,0,30,-21,00,0,00,14,00,-31,07,0,00,42,35,-31,07,0,00,42,35
22003,-0,20,0,69,-10,09,0,00,0,30,-21,00,0,00,0,00,-29,56,0,00,36,00,-29,56,0,00,36,00
22019,-0,29,0,78,-10,58,-0,09,0,39,-27,30,0,00,-6,30,-29,22,0,00,29,65,-29,22,0,00,29,65
22037,-0,29,0,78,-10,58,-0,09,0,39,-27,30,0,00,-6,30,-28,93,0,00,24,26,-28,93,0,00,24,26
22053,-0,29,0,69,-10,09,-0,09,0,30,-21,00,0,00,-6,30,-27,74,0,00,19,68,-27,74,0,00,19,68
22072,-0,29,0,69,-10,09,-0,09,0,30,-21,00,0,00,-6,30,-26,73,0,00,15,78,-26,73,0,00,15,78
22092,-0,29,0,69,-10,09,-0,09,0,30,-21,00,0,00,-6,30,-25,87,0,00,12,47,-25,87,0,00,12,47
22115,-0,49,0,59,-10,00,-0,29,0,20,-14,00,0,00,-20,30,-24,09,0,00,7,55,-24,09,0,00,7,55
22134,-0,49,0,59,-10,09,-0,29,0,20,-14,00,0,00,-20,30,-22,58,0,00,3,38,-22,58,0,00,3,38
22150,-0,49,0,69,-10,09,-0,29,0,30,-21,00,0,00,-20,30,-22,34,0,00,-0,18,-22,34,0,00,-0,18
22166,-0,49,0,78,-10,29,-0,29,0,39,-27,30,0,00,-20,30,-23,08,0,00,-3,19,-23,08,0,00,-3,19
22182,-0,49,0,78,-10,29,-0,29,0,39,-27,30,0,00,-20,30,-23,72,0,00,-5,76,-23,72,0,00,-5,76
22198,-0,59,0,59,-10,00,-0,39,0,20,-14,00,0,00,-27,30,-22,26,0,00,-8,99,-22,26,0,00,-8,99
22214,-0,59,0,59,-10,00,-0,39,0,20,-14,00,0,00,-27,30,-21,02,0,00,-11,74,-21,02,0,00,-11,74
22231,-0,59,0,49,-10,19,-0,39,0,10,-7,00,0,00,-27,30,-18,92,0,00,-14,07,-18,92,0,00,-14,07
22247,-0,59,0,49,-10,19,-0,39,0,10,-7,00,0,00,-27,30,-17,13,0,00,-16,06,-17,13,0,00,-16,06
22263,-0,59,0,69,-10,09,-0,39,0,30,-21,00,0,00,-27,30,-17,71,0,00,-17,74,-17,71,0,00,-17,74
22278,-0,59,0,69,-9,90,-0,39,0,30,-21,00,0,00,-27,30,-18,20,0,00,-19,18,-18,20,0,00,-19,18
22294,-0,78,0,49,-9,90,-0,58,0,10,-7,00,0,00,-40,60,-16,52,0,00,-22,39,-16,52,0,00,-22,39
22310,-0,78,0,49,-10,19,-0,58,0,10,-7,00,0,00,-40,60,-15,09,0,00,-25,12,-15,09,0,00,-25,12
22327,-0,78,0,49,-10,19,-0,58,0,10,-7,00,0,00,-40,60,-13,88,0,00,-27,44,-13,88,0,00,-27,44
22348,-0,88,0,98,-10,49,-0,68,0,59,-41,30,0,00,-47,60,-17,99,0,00,-30,47,-17,99,0,00,-30,47
22364,-0,88,0,98,-10,49,-0,68,0,59,-41,30,0,00,-47,60,-21,49,0,00,-33,04,-21,49,0,00,-33,04
22383,-0,78,0,69,-10,09,-0,58,0,30,-21,00,0,00,-40,60,-21,42,0,00,-34,17,-21,42,0,00,-34,17
22399,-0,78,0,69,-10,19,-0,58,0,30,-21,00,0,00,-40,60,-21,35,0,00,-35,14,-21,35,0,00,-35,14
22415,-0,59,0,49,-10,19,-0,39,0,10,-7,00,0,00,-27,30,-19,20,0,00,-33,96,-19,20,0,00,-33,96
22431,-0,59,0,49,-10,29,-0,39,0,10,-7,00,0,00,-27,30,-17,37,0,00,-32,96,-17,37,0,00,-32,96
22447,-0,78,0,78,-10,29,-0,58,0,39,-27,30,0,00,-40,60,-18,86,0,00,-34,11,-18,86,0,00,-34,11
22462,-0,78,0,78,-10,49,-0,58,0,39,-27,30,0,00,-40,60,-20,13,0,00,-35,08,-20,13,0,00,-35,08
22478,-0,78,0,69,-10,49,-0,58,0,30,-21,00,0,00,-40,60,-20,26,0,00,-35,91,-20,26,0,00,-35,91
22494,-0,78,0,69,-10,49,-0,58,0,30,-21,00,0,00,-40,60,-20,37,0,00,-36,61,-20,37,0,00,-36,61
22509,-0,78,0,69,-10,49,-0,58,0,30,-21,00,0,00,-40,60,-20,46,0,00,-37,21,-20,46,0,00,-37,21
22526,-0,59,0,59,-10,00,-0,39,0,20,-14,00,0,00,-27,30,-19,49,0,00,-35,72,-19,49,0,00,-35,72
22544,-0,59,0,59,-10,00,-0,39,0,20,-14,00,0,00,-27,30,-18,67,0,00,-34,46,-18,67,0,00,-34,46
22560,-0,78,0,69,-10,68,-0,58,0,30,-21,00,0,00,-40,60,-19,02,0,00,-35,38,-19,02,0,00,-35,38
22576,-0,78,0,69,-10,68,-0,58,0,30,-21,00,0,00,-40,60,-19,32,0,00,-36,16,-19,32,0,00,-36,16
22593,-0,78,0,69,-10,68,-0,58,0,30,-21,00,0,00,-40,60,-19,57,0,00,-36,83,-19,57,0,00,-36,83
22610,-0,78,0,69,-10,19,-0,58,0,30,-21,00,0,00,-40,60,-19,78,0,00,-37,40,-19,78,0,00,-37,40
22626,-0,59,0,29,-10,19,-0,39,-0,10,7,00,0,00,-27,30,-15,77,0,00,-35,88,-15,77,0,00,-35,88
22645,-0,59,0,29,-10,39,-0,39,-0,10,7,00,0,00,-27,30,-12,35,0,00,-34,59,-12,35,0,00,-34,59
22662,-0,49,0,29,-10,39,-0,29,-0,10,7,00,0,00,-20,30,-9,45,0,00,-32,45,-9,45,0,00,-32,45
22678,-0,59,0,29,-10,39,-0,39,-0,10,7,00,0,00,-27,30,-6,98,0,00,-31,68,-6,98,0,00,-31,68
22694,-0,59,0,29,-10,39,-0,39,-0,10,7,00,0,00,-27,30,-4,88,0,00,-31,02,-4,88,0,00,-31,02
22710,-0,59,0,00,-10,29,-0,39,-0,39,27,30,0,00,-27,30,-0,06,0,00,-30,46,-0,06,0,00,-30,46
22727,-0,59,0,00,-10,29,-0,39,-0,39,27,30,0,00,-27,30,4,05,0,00,-29,99,4,05,0,00,-29,99
22747,-0,49,0,00,-10,49,-0,29,-0,39,27,30,0,00,-20,30,7,54,0,00,-28,53,7,54,0,00,-28,53
22763,-0,49,0,10,-10,58,-0,29,-0,29,20,30,0,00,-20,30,9,45,0,00,-27,30,9,45,0,00,-27,30
22781,-0,59,0,10,-10,58,-0,39,-0,29,20,30,0,00,-27,30,11,08,0,00,-27,30,11,08,0,00,-27,30
22797,-0,49,-0,39,-10,00,-0,29,-0,78,54,60,0,00,-20,30,17,61,0,00,-26,25,17,61,0,00,-26,25
22813,-0,49,-0,39,-10,00,-0,29,-0,78,54,60,0,00,-20,30,23,15,0,00,-25,36,23,15,0,00,-25,36
22834,-0,49,-0,69,-10,00,-0,29,-1,08,75,60,0,00,-20,30,31,02,0,00,-24,60,31,02,0,00,-24,60
22850,-0,49,-0,69,-10,19,-0,29,-1,08,75,60,0,00,-20,30,37,71,0,00,-23,95,37,71,0,00,-23,95
22866,-0,49,-0,69,-10,19,-0,29,-1,08,75,60,0,00,-20,30,43,39,0,00,-23,41,43,39,0,00,-23,41
22882,-0,49,-0,69,-10,19,-0,29,-1,08,75,60,0,00,-20,30,48,22,0,00,-22,94,48,22,0,00,-22,94
22897,-0,49,-0,69,-10,19,-0,29,-1,08,75,60,0,00,-20,30,52,33,0,00,-22,54,52,33,0,00,-22,54
22913,-0,49,-0,69,-9,90,-0,29,-1,08,75,60,0,00,-20,30,55,82,0,00,-22,21,55,82,0,00,-22,21
22929,-0,29,-0,98,-9,90,-0,09,-1,37,95,90,0,00,-6,30,61,83,0,00,-19,82,61,83,0,00,-19,82
22947,-0,29,-0,98,-9,90,-0,09,-1,37,95,90,0,00,-6,30,66,94,0,00,-17,79,66,94,0,00,-17,79
22965,-0,29,-0,98,-9,90,-0,09,-1,37,95,90,0,00,-6,30,71,29,0,00,-16,07,71,29,0,00,-16,07
22982,-0,29,-1,18,-10,39,-0,09,-1,57,109,90,0,00,-6,30,77,08,0,00,-14,60,77,08,0,00,-14,60
22999,-0,29,-1,18,-10,29,-0,09,-1,57,109,90,0,00,-6,30,82,00,0,00,-13,36,82,00,0,00,-13,36
23016,-0,29,-1,27,-10,29,-0,09,-1,66,116,20,0,00,-6,30,87,13,0,00,-12,30,87,13,0,00,-12,30
23037,-0,29,-1,47,-9,51,-0,09,-1,86,130,20,0,00,-6,30,93,59,0,00,-11,40,90,00,0,00,-11,40
23054,-0,29,-1,47,-9,51,-0,09,-1,86,130,20,0,00,-6,30,99,08,0,00,-10,63,90,00,0,00,-10,63
23071,-0,29,-1,86,-9,80,-0,09,-2,25,157,50,0,00,-6,30,107,85,0,00,-9,98,90,00,0,00,-9,98
23087,-0,29,-1,86,-9,60,-0,09,-2,25,157,50,0,00,-6,30,115,29,0,00,-9,43,90,00,0,00,-9,43
23104,-0,29,-1,86,-9,60,-0,09,-2,25,157,50,0,00,-6,30,121,62,0,00,-8,96,90,00,0,00,-8,96
23120,-0,29,-1,86,-9,51,-0,09,-2,25,157,50,0,00,-6,30,127,01,0,00,-8,56,90,00,0,00,-8,56
23136,-0,29,-1,96,-9,51,-0,09,-2,35,164,50,0,00,-6,30,132,63,0,00,-8,22,90,00,0,00,-8,22
23160,-0,29,-1,76,-10,09,-0,09,-2,15,150,50,0,00,-6,30,135,31,0,00,-7,93,90,00,0,00,-7,93
23185,-0,29,-1,86,-9,60,-0,09,-2,25,157,50,0,00,-6,30,138,64,0,00,-7,69,90,00,0,00,-7,69
23206,-0,29,-1,86,-9,60,-0,09,-2,25,157,50,0,00,-6,30,141,47,0,00,-7,48,90,00,0,00,-7,48
23226,-0,29,-1,76,-9,90,-0,09,-2,15,150,50,0,00,-6,30,142,82,0,00,-7,30,90,00,0,00,-7,30
23244,-0,29,-1,67,-9,51,-0,09,-2,06,144,20,0,00,-6,30,143,03,0,00,-7,15,90,00,0,00,-7,15
23261,-0,29,-1,67,-9,51,-0,09,-2,06,144,20,0,00,-6,30,143,21,0,00,-7,03,90,00,0,00,-7,03
23280,-0,29,-1,76,-9,70,-0,09,-2,15,150,50,0,00,-6,30,144,30,0,00,-6,92,90,00,0,00,-6,92
23297,-0,29,-1,76,-9,70,-0,09,-2,15,150,50,0,00,-6,30,145,23,0,00,-6,82,90,00,0,00,-6,82
23314,-0,20,-1,76,-9,70,0,00,-2,15,150,50,0,00,0,00,146,02,0,00,-5,80,90,00,0,00,-5,80
23330,-0,20,-1,76,-9,70,0,00,-2,15,150,50,0,00,0,00,146,69,0,00,-4,93,90,00,0,00,-4,93
23347,-0,20,-1,76,-9,70,0,00,-2,15,150,50,0,00,0,00,147,26,0,00,-4,19,90,00,0,00,-4,19
23369,-0,20,-1,18,-9,60,0,00,-1,57,109,90,0,00,0,00,141,66,0,00,-3,56,90,00,0,00,-3,56
23391,0,00,-1,18,-9,80,0,20,-1,57,109,90,0,00,14,00,136,89,0,00,-0,93,90,00,0,00,-0,93
23415,0,20,-0,88,-9,80,0,40,-1,27,88,90,0,00,28,00,129,70,0,00,3,41,90,00,0,00,3,41
23443,-0,20,-0,59,-9,90,0,00,-0,98,68,60,0,00,0,00,120,53,0,00,2,90,90,00,0,00,2,90
23465,0,20,0,49,-11,07,0,40,0,10,-7,00,0,00,28,00,101,40,0,00,6,66,90,00,0,00,6,66
23486,0,20,0,29,-10,88,0,40,-0,10,7,00,0,00,28,00,87,24,0,00,9,86,87,24,0,00,9,86
23504,0,20,0,29,-10,88,0,40,-0,10,7,00,0,00,28,00,75,21,0,00,12,59,75,21,0,00,12,59
23522,0,20,0,10,-10,00,0,40,-0,29,20,30,0,00,28,00,66,97,0,00,14,90,66,97,0,00,14,90
23537,0,20,0,10,-10,00,0,40,-0,29,20,30,0,00,28,00,59,97,0,00,16,86,59,97,0,00,16,86
23554,0,20,0,78,-10,78,0,40,0,39,-27,30,0,00,28,00,46,88,0,00,18,53,46,88,0,00,18,53
23570,0,20,0,78,-10,68,0,40,0,39,-27,30,0,00,28,00,35,75,0,00,19,95,35,75,0,00,19,95
23586,0,20,0,69,-10,68,0,40,0,30,-21,00,0,00,28,00,27,24,0,00,21,16,27,24,0,00,21,16
23604,0,20,0,78,-10,29,0,40,0,39,-27,30,0,00,28,00,19,06,0,00,22,19,19,06,0,00,22,19
23628,0,29,0,78,-10,29,0,49,0,39,-27,30,0,00,34,30,12,10,0,00,24,00,12,10,0,00,24,00
23644,0,29,0,78,-10,29,0,49,0,39,-27,30,0,00,34,30,6,19,0,00,25,55,6,19,0,00,25,55
23660,0,29,0,78,-10,49,0,49,0,39,-27,30,0,00,34,30,1,17,0,00,26,86,1,17,0,00,26,86
23676,0,29,0,69,-10,49,0,49,0,30,-21,00,0,00,34,30,-2,16,0,00,27,98,-2,16,0,00,27,98
23694,0,29,0,59,-10,00,0,49,0,20,-14,00,0,00,34,30,-3,93,0,00,28,93,-3,93,0,00,28,93
23712,0,29,0,59,-10,00,0,49,0,20,-14,00,0,00,34,30,-5,44,0,00,29,73,-5,44,0,00,29,73
23737,0,29,0,78,-10,29,0,49,0,39,-27,30,0,00,34,30,-8,72,0,00,30,42,-8,72,0,00,30,42
23756,0,29,0,88,-10,39,0,49,0,49,-34,30,0,00,34,30,-12,56,0,00,31,00,-12,56,0,00,31,00
23775,0,29,0,88,-10,39,0,49,0,49,-34,30,0,00,34,30,-15,82,0,00,31,49,-15,82,0,00,31,49
23794,0,29,0,88,-10,39,0,49,0,49,-34,30,0,00,34,30,-18,59,0,00,31,92,-18,59,0,00,31,92
23816,0,29,0,69,-10,09,0,49,0,30,-21,00,0,00,34,30,-18,95,0,00,32,27,-18,95,0,00,32,27
23838,0,29,0,69,-10,09,0,49,0,30,-21,00,0,00,34,30,-19,26,0,00,32,58,-19,26,0,00,32,58
23856,0,29,0,69,-10,09,0,49,0,30,-21,00,0,00,34,30,-19,52,0,00,32,84,-19,52,0,00,32,84
23880,0,29,0,78,-10,29,0,49,0,39,-27,30,0,00,34,30,-20,69,0,00,33,06,-20,69,0,00,33,06
23897,0,29,0,78,-10,29,0,49,0,39,-27,30,0,00,34,30,-21,68,0,00,33,24,-21,68,0,00,33,24
23918,0,29,0,49,-10,19,0,49,0,10,-7,00,0,00,34,30,-19,48,0,00,33,40,-19,48,0,00,33,40
23937,0,29,0,59,-10,00,0,49,0,20,-14,00,0,00,34,30,-18,66,0,00,33,54,-18,66,0,00,33,54
23954,0,20,0,59,-10,00,0,40,0,20,-14,00,0,00,28,00,-17,96,0,00,32,71,-17,96,0,00,32,71
23970,0,29,0,59,-10,00,0,49,0,20,-14,00,0,00,34,30,-17,36,0,00,32,94,-17,36,0,00,32,94
23987,0,29,0,59,-10,00,0,49,0,20,-14,00,0,00,34,30,-16,86,0,00,33,15,-16,86,0,00,33,15
24003,0,29,0,78,-10,29,0,49,0,39,-27,30,0,00,34,30,-18,43,0,00,33,32,-18,43,0,00,33,32
24020,0,29,0,78,-10,29,0,49,0,39,-27,30,0,00,34,30,-19,76,0,00,33,47,-19,76,0,00,33,47
24038,0,29,0,78,-10,29,0,49,0,39,-27,30,0,00,34,30,-20,89,0,00,33,59,-20,89,0,00,33,59
24060,0,29,0,78,-10,00,0,49,0,39,-27,30,0,00,34,30,-21,85,0,00,33,70,-21,85,0,00,33,70
24077,0,29,0,78,-10,00,0,49,0,39,-27,30,0,00,34,30,-22,67,0,00,33,79,-22,67,0,00,33,79
24094,0,29,0,69,-10,09,0,49,0,30,-21,00,0,00,34,30,-22,42,0,00,33,87,-22,42,0,00,33,87
24110,0,29,0,69,-10,00,0,49,0,30,-21,00,0,00,34,30,-22,20,0,00,33,93,-22,20,0,00,33,93
24127,0,29,0,59,-10,00,0,49,0,20,-14,00,0,00,34,30,-20,97,0,00,33,99,-20,97,0,00,33,99
24143,0,29,0,69,-10,09,0,49,0,30,-21,00,0,00,34,30,-21,00,0,00,34,03,-21,00,0,00,34,03
24161,0,29,0,69,-10,09,0,49,0,30,-21,00,0,00,34,30,-21,00,0,00,34,07,-21,00,0,00,34,07
24179,0,29,0,59,-10,00,0,49,0,20,-14,00,0,00,34,30,-19,95,0,00,34,11,-19,95,0,00,34,11
24196,0,29,0,59,-10,00,0,49,0,20,-14,00,0,00,34,30,-19,06,0,00,34,14,-19,06,0,00,34,14
24211,0,29,0,59,-10,00,0,49,0,20,-14,00,0,00,34,30,-18,30,0,00,34,16,-18,30,0,00,34,16
24227,0,29,0,59,-10,00,0,49,0,20,-14,00,0,00,34,30,-17,65,0,00,34,18,-17,65,0,00,34,18
24243,0,29,0,59,-10,00,0,49,0,20,-14,00,0,00,34,30,-17,11,0,00,34,20,-17,11,0,00,34,20
24259,0,29,0,59,-10,49,0,49,0,20,-14,00,0,00,34,30,-16,64,0,00,34,21,-16,64,0,00,34,21
24276,0,29,0,49,-10,49,0,49,0,10,-7,00,0,00,34,30,-15,19,0,00,34,23,-15,19,0,00,34,23
24294,0,29,0,39,-9,80,0,49,0,00,-0,00,0,00,34,30,-12,91,0,00,34,24,-12,91,0,00,34,24
24312,1,96,0,39,-9,80,2,16,0,00,-0,00,0,00,151,20,-10,98,0,00,51,78,-10,98,0,00,51,78
24331,0,20,-0,20,-10,58,0,40,-0,59,41,30,0,00,28,00,-3,14,0,00,48,22,-3,14,0,00,48,22
24349,0,20,-0,20,-10,58,0,40,-0,59,41,30,0,00,28,00,3,53,0,00,45,18,3,53,0,00,45,18
24367,0,20,-0,20,-10,58,0,40,-0,59,41,30,0,00,28,00,9,19,0,00,42,61,9,19,0,00,42,61
24388,0,20,0,59,-9,41,0,40,0,20,-14,00,0,00,28,00,5,72,0,00,40,41,5,72,0,00,40,41
24403,0,00,0,59,-9,41,0,20,0,20,-14,00,0,00,14,00,2,76,0,00,36,45,2,76,0,00,36,45
24419,0,88,0,59,-8,62,1,08,0,20,-14,00,0,00,75,60,0,24,0,00,42,32,0,24,0,00,42,32
24436,0,88,0,59,-8,62,1,08,0,20,-14,00,0,00,75,60,-1,89,0,00,47,32,-1,89,0,00,47,32
24453,-1,37,2,16,-10,88,-1,17,1,77,-123,90,0,00,-81,90,-20,19,0,00,27,93,-20,19,0,00,27,93
24469,-1,37,2,16,-10,98,-1,17,1,77,-123,90,0,00,-81,90,-35,75,0,00,11,46,-35,75,0,00,11,46
24486,-0,59,2,55,-10,98,-0,39,2,16,-151,20,0,00,-27,30,-53,07,0,00,5,64,-53,07,0,00,5,64
24504,-0,59,2,55,-10,98,-0,39,2,16,-151,20,0,00,-27,30,-67,79,0,00,0,70,-67,79,0,00,0,70
24519,2,45,3,23,-10,98,2,65,2,84,-198,80,0,00,185,50,-87,44,0,00,28,42,-87,44,0,00,28,42
24537,2,45,2,06,-11,76,2,65,1,67,-116,90,0,00,185,50,-91,86,0,00,51,98,-90,00,0,00,51,98
24553,2,94,2,06,-11,76,3,14,1,67,-116,90,0,00,219,80,-95,61,0,00,77,16,-90,00,0,00,77,16
24573,1,96,1,96,-11,86,2,16,1,57,-109,90,0,00,151,20,-97,76,0,00,88,26,-90,00,0,00,88,26
24588,1,96,1,96,-9,31,2,16,1,57,-109,90,0,00,151,20,-99,58,0,00,97,70,-90,00,0,00,90,00
24610,1,08,0,39,-9,31,1,28,0,00,-0,00,0,00,89,60,-84,64,0,00,96,49,-84,64,0,00,90,00
24627,1,08,0,39,-9,31,1,28,0,00,-0,00,0,00,89,60,-71,95,0,00,95,45,-71,95,0,00,90,00
24643,1,08,0,39,-9,31,1,28,0,00,-0,00,0,00,89,60,-61,15,0,00,94,58,-61,15,0,00,90,00
24659,2,74,1,27,-8,04,2,94,0,88,-61,60,0,00,205,80,-61,22,0,00,111,26,-61,22,0,00,90,00
24675,2,74,1,27,-8,04,2,94,0,88,-61,60,0,00,205,80,-61,28,0,00,125,44,-61,28,0,00,90,00
24691,2,65,2,06,-10,58,2,85,1,67,-116,90,0,00,199,50,-69,62,0,00,136,55,-69,62,0,00,90,00
24710,2,65,2,06,-11,66,2,85,1,67,-116,90,0,00,199,50,-76,71,0,00,145,99,-76,71,0,00,90,00
24727,1,27,0,98,-11,66,1,47,0,59,-41,30,0,00,102,90,-71,40,0,00,139,53,-71,40,0,00,90,00
24745,1,27,0,10,-10,00,1,47,-0,29,20,30,0,00,102,90,-57,65,0,00,134,03,-57,65,0,00,90,00
24765,1,37,0,10,-10,00,1,57,-0,29,20,30,0,00,109,90,-45,95,0,00,130,41,-45,95,0,00,90,00
24783,1,37,0,10,-10,00,1,57,-0,29,20,30,0,00,109,90,-36,02,0,00,127,34,-36,02,0,00,90,00
24799,1,37,0,10,-10,09,1,57,-0,29,20,30,0,00,109,90,-27,57,0,00,124,72,-27,57,0,00,90,00
24815,3,43,0,00,-10,09,3,63,-0,39,27,30,0,00,254,10,-19,34,0,00,144,13,-19,34,0,00,90,00
24831,3,43,0,00,-10,19,3,63,-0,39,27,30,0,00,254,10,-12,34,0,00,160,62,-12,34,0,00,90,00
24847,3,23,1,27,-10,19,3,43,0,88,-61,60,0,00,240,10,-19,73,0,00,172,55,-19,73,0,00,90,00
24863,3,23,1,27,-9,60,3,43,0,88,-61,60,0,00,240,10,-26,01,0,00,182,68,-26,01,0,00,90,00
24879,2,74,0,39,-9,60,2,94,0,00,-0,00,0,00,205,80,-22,11,0,00,186,15,-22,11,0,00,90,00
24895,2,74,0,59,-7,64,2,94,0,20,-14,00,0,00,205,80,-20,89,0,00,189,09,-20,89,0,00,90,00
24911,3,23,0,59,-7,64,3,43,0,20,-14,00,0,00,240,10,-19,86,0,00,196,75,-19,86,0,00,90,00
24928,2,74,-0,20,-7,94,2,94,-0,59,41,30,0,00,205,80,-10,69,0,00,198,10,-10,69,0,00,90,00
24945,2,74,-0,20,-7,94,2,94,-0,59,41,30,0,00,205,80,-2,89,0,00,199,26,-2,89,0,00,90,00
24964,1,08,-0,88,-10,19,1,28,-1,27,88,90,0,00,89,60,10,88,0,00,182,81,10,88,0,00,90,00
24981,1,08,-0,88,-10,39,1,28,-1,27,88,90,0,00,89,60,22,58,0,00,168,83,22,58,0,00,90,00
24998,0,88,-0,10,-10,39,1,08,-0,49,34,30,0,00,75,60,24,34,0,00,154,84,24,34,0,00,90,00
25014,0,88,-0,20,-10,09,1,08,-0,59,41,30,0,00,75,60,26,88,0,00,142,96,26,88,0,00,90,00
25030,0,20,-0,20,-10,09,0,40,-0,59,41,30,0,00,28,00,29,05,0,00,125,71,29,05,0,00,90,00
25047,0,20,-0,20,-10,09,0,40,-0,59,41,30,0,00,28,00,30,89,0,00,111,06,30,89,0,00,90,00
25063,0,20,-0,20,-10,09,0,40,-0,59,41,30,0,00,28,00,32,45,0,00,98,60,32,45,0,00,90,00
25079,-1,37,0,39,-9,31,-1,17,0,00,-0,00,0,00,-81,90,27,58,0,00,71,52,27,58,0,00,71,52
25097,-1,37,0,39,-9,31,-1,17,0,00,-0,00,0,00,-81,90,23,44,0,00,48,51,23,44,0,00,48,51
25113,-0,78,0,10,-10,00,-0,58,-0,29,20,30,0,00,-40,60,22,97,0,00,35,14,22,97,0,00,35,14
25131,-0,78,0,10,-10,29,-0,58,-0,29,20,30,0,00,-40,60,22,57,0,00,23,78,22,57,0,00,23,78
25150,-0,78,0,98,-10,29,-0,58,0,59,-41,30,0,00,-40,60,12,99,0,00,14,12,12,99,0,00,14,12
25173,-0,78,2,65,-8,92,-0,58,2,26,-158,20,0,00,-40,60,-12,69,0,00,5,92,-12,69,0,00,5,92
25194,-1,86,2,65,-8,92,-1,66,2,26,-158,20,0,00,-116,20,-34,52,0,00,-12,40,-34,52,0,00,-12,40
25211,-1,86,2,65,-8,92,-1,66,2,26,-158,20,0,00,-116,20,-53,07,0,00,-27,97,-53,07,0,00,-27,97
25230,-8,62,-2,55,-6,57,-8,42,-2,94,205,80,0,00,-589,40,-14,24,0,00,-112,19,-14,24,0,00,-90,00
25246,-8,62,-2,55,-6,57,-8,42,-2,94,205,80,0,00,-589,40,18,77,0,00,-183,77,18,77,0,00,-90,00
25262,-10,78,2,35,-13,92,-10,58,1,96,-137,20,0,00,-740,60,-4,63,0,00,-267,29,-4,63,0,00,-90,00
25278,-10,78,2,35,-8,92,-10,58,1,96,-137,20,0,00,-740,60,-24,51,0,00,-338,29,-24,51,0,00,-90,00
25293,-5,88,-0,78,-8,92,-5,68,-1,17,81,90,0,00,-397,60,-8,55,0,00,-347,19,-8,55,0,00,-90,00
25311,-5,88,-0,78,-10,29,-5,68,-1,17,81,90,0,00,-397,60,5,02,0,00,-354,75,5,02,0,00,-90,00
25328,-3,43,-0,49,-10,29,-3,23,-0,88,61,60,0,00,-226,10,13,50,0,00,-335,45,13,50,0,00,-90,00
25344,-3,43,-0,49,-11,07,-3,23,-0,88,61,60,0,00,-226,10,20,72,0,00,-319,05,20,72,0,00,-90,00
25377,-4,21,0,49,-9,80,-4,01,0,10,-7,00,0,00,-280,70,16,56,0,00,-313,30,16,56,0,00,-90,00
25399,-2,35,-0,20,-7,64,-2,15,-0,59,41,30,0,00,-150,50,20,27,0,00,-288,88,20,27,0,00,-90,00
25417,-2,74,-1,47,-7,64,-2,54,-1,86,130,20,0,00,-177,80,36,76,0,00,-272,21,36,76,0,00,-90,00
25435,-2,74,-0,20,-7,64,-2,54,-0,59,41,30,0,00,-177,80,37,44,0,00,-258,05,37,44,0,00,-90,00
25451,-2,45,-0,20,-7,64,-2,25,-0,59,41,30,0,00,-157,50,38,02,0,00,-242,97,38,02,0,00,-90,00
25468,-2,45,-0,20,-7,64,-2,25,-0,59,41,30,0,00,-157,50,38,51,0,00,-230,15,38,51,0,00,-90,00
25483,-2,45,-0,20,-7,64,-2,25,-0,59,41,30,0,00,-157,50,38,93,0,00,-219,25,38,93,0,00,-90,00
25498,-2,74,-1,47,-9,51,-2,54,-1,86,130,20,0,00,-177,80,52,62,0,00,-213,03,52,62,0,00,-90,00
25514,-2,74,-1,47,-9,51,-2,54,-1,86,130,20,0,00,-177,80,64,26,0,00,-207,75,64,26,0,00,-90,00
25531,-0,49,0,88,-11,17,-0,29,0,49,-34,30,0,00,-20,30,49,47,0,00,-179,63,49,47,0,00,-90,00
25547,-0,49,0,88,-11,17,-0,29,0,49,-34,30,0,00,-20,30,36,91,0,00,-155,73,36,91,0,00,-90,00
25563,0,78,0,00,-8,62,0,98,-0,39,27,30,0,00,68,60,35,47,0,00,-122,08,35,47,0,00,-90,00
25579,0,78,0,00,-10,09,0,98,-0,39,27,30,0,00,68,60,34,24,0,00,-93,48,34,24,0,00,-90,00
25595,0,29,-0,98,-10,09,0,49,-1,37,95,90,0,00,34,30,43,49,0,00,-74,31,43,49,0,00,-74,31
25611,0,29,-0,98,-10,09,0,49,-1,37,95,90,0,00,34,30,51,35,0,00,-58,02,51,35,0,00,-58,02
25627,0,29,-0,98,-10,09,0,49,-1,37,95,90,0,00,34,30,58,03,0,00,-44,17,58,03,0,00,-44,17
25643,0,29,-0,69,-9,51,0,49,-1,08,75,60,0,00,34,30,60,67,0,00,-32,40,60,67,0,00,-32,40
25661,0,00,-0,69,-9,51,0,20,-1,08,75,60,0,00,14,00,62,91,0,00,-25,44,62,91,0,00,-25,44
25679,-1,27,-0,39,-9,21,-1,07,-0,78,54,60,0,00,-74,90,61,66,0,00,-32,86,61,66,0,00,-32,86
25695,-1,27,-0,39,-9,21,-1,07,-0,78,54,60,0,00,-74,90,60,60,0,00,-39,17,60,60,0,00,-39,17
25711,-0,49,0,78,-10,78,-0,29,0,39,-27,30,0,00,-20,30,47,42,0,00,-36,34,47,42,0,00,-36,34
25727,-0,49,0,78,-10,78,-0,29,0,39,-27,30,0,00,-20,30,36,21,0,00,-33,93,36,21,0,00,-33,93
25743,3,23,1,67,-9,70,3,43,1,28,-89,60,0,00,240,10,17,34,0,00,7,17,17,34,0,00,7,17
25760,3,23,1,67,-7,74,3,43,1,28,-89,60,0,00,240,10,1,30,0,00,42,11,1,30,0,00,42,11
25777,-0,20,1,08,-7,74,0,00,0,69,-48,30,0,00,0,00,-6,14,0,00,35,80,-6,14,0,00,35,80
25794,-0,20,0,10,-6,57,0,00,-0,29,20,30,0,00,0,00,-2,18,0,00,30,43,-2,18,0,00,30,43
25810,-2,16,0,10,-6,57,-1,96,-0,29,20,30,0,00,-137,20,1,20,0,00,5,28,1,20,0,00,5,28
25826,-2,16,0,39,-7,74,-1,96,0,00,-0,00,0,00,-137,20,1,02,0,00,-16,09,1,02,0,00,-16,09
25844,-2,35,0,39,-7,74,-2,15,0,00,-0,00,0,00,-150,50,0,86,0,00,-36,25,0,86,0,00,-36,25
25860,-3,04,3,82,-14,11,-2,84,3,43,-240,10,0,00,-198,80,-35,28,0,00,-60,63,-35,28,0,00,-60,63
25877,-3,04,3,82,-14,11,-2,84,3,43,-240,10,0,00,-198,80,-66,00,0,00,-81,36,-66,00,0,00,-81,36
25894,-2,94,4,02,-13,13,-2,74,3,63,-254,10,0,00,-191,80,-94,22,0,00,-97,92,-90,00,0,00,-90,00
25910,-2,94,4,02,-13,13,-2,74,3,63,-254,10,0,00,-191,80,-118,20,0,00,-112,01,-90,00,0,00,-90,00
25938,-2,94,4,02,-13,13,-2,74,3,63,-254,10,0,00,-191,80,-138,59,0,00,-123,98,-90,00,0,00,-90,00
25954,-2,45,2,55,-11,17,-2,25,2,16,-151,20,0,00,-157,50,-140,48,0,00,-129,00,-90,00,0,00,-90,00
25973,-2,45,0,39,-8,92,-2,25,0,00,-0,00,0,00,-157,50,-119,41,0,00,-133,28,-90,00,0,00,-90,00
26003,-2,45,0,39,-10,19,-2,25,0,00,-0,00,0,00,-157,50,-101,49,0,00,-136,91,-90,00,0,00,-90,00
26035,0,00,1,96,-10,68,0,20,1,57,-109,90,0,00,14,00,-102,76,0,00,-114,27,-90,00,0,00,-90,00
26051,0,20,1,96,-10,68,0,40,1,57,-109,90,0,00,28,00,-103,83,0,00,-92,93,-90,00,0,00,-90,00
26083,0,59,0,69,-9,51,0,79,0,30,-21,00,0,00,55,30,-91,40,0,00,-70,70,-90,00,0,00,-70,70
26100,-0,20,0,20,-9,31,0,00,-0,19,13,30,0,00,0,00,-75,70,0,00,-60,09,-75,70,0,00,-60,09
26117,-0,20,0,20,-9,31,0,00,-0,19,13,30,0,00,0,00,-62,35,0,00,-51,08,-62,35,0,00,-51,08
26134,0,29,-0,10,-9,02,0,49,-0,49,34,30,0,00,34,30,-47,85,0,00,-38,27,-47,85,0,00,-38,27
26151,0,29,-0,10,-8,72,0,49,-0,49,34,30,0,00,34,30,-35,53,0,00,-27,39,-35,53,0,00,-27,39
26167,1,08,-0,78,-8,72,1,28,-1,17,81,90,0,00,89,60,-17,91,0,00,-9,84,-17,91,0,00,-9,84
26184,1,08,-1,37,-9,02,1,28,-1,76,123,20,0,00,89,60,3,25,0,00,5,08,3,25,0,00,5,08
26200,0,29,-1,37,-9,02,0,49,-1,76,123,20,0,00,34,30,21,25,0,00,9,46,21,25,0,00,9,46
26216,0,29,-1,27,-8,72,0,49,-1,66,116,20,0,00,34,30,35,49,0,00,13,19,35,49,0,00,13,19
26239,0,29,-1,27,-8,72,0,49,-1,66,116,20,0,00,34,30,47,60,0,00,16,35,47,60,0,00,16,35
26255,0,29,-1,27,-8,72,0,49,-1,66,116,20,0,00,34,30,57,89,0,00,19,05,57,89,0,00,19,05
26274,0,29,-0,10,-10,58,0,49,-0,49,34,30,0,00,34,30,54,35,0,00,21,33,54,35,0,00,21,33
26290,-0,20,0,10,-10,58,0,00,-0,29,20,30,0,00,0,00,49,24,0,00,18,13,49,24,0,00,18,13
26306,-0,20,-0,20,-10,58,0,00,-0,59,41,30,0,00,0,00,48,05,0,00,15,41,48,05,0,00,15,41
26322,-0,88,-0,20,-10,58,-0,68,-0,59,41,30,0,00,-47,60,47,04,0,00,5,96,47,04,0,00,5,96
26338,-0,88,-0,20,-10,58,-0,68,-0,59,41,30,0,00,-47,60,46,18,0,00,-2,07,46,18,0,00,-2,07
26355,-0,88,-0,20,-10,58,-0,68,-0,59,41,30,0,00,-47,60,45,45,0,00,-8,90,45,45,0,00,-8,90
26381,-1,86,0,00,-11,76,-1,66,-0,39,27,30,0,00,-116,20,42,72,0,00,-25,00,42,72,0,00,-25,00
26399,-1,86,0,39,-10,98,-1,66,0,00,-0,00,0,00,-116,20,36,31,0,00,-38,68,36,31,0,00,-38,68
26414,-1,67,0,39,-10,98,-1,47,0,00,-0,00,0,00,-102,90,30,87,0,00,-48,31,30,87,0,00,-48,31
26431,-1,86,1,57,-10,58,-1,66,1,18,-82,60,0,00,-116,20,13,85,0,00,-58,49,13,85,0,00,-58,49
26452,-1,86,1,57,-10,29,-1,66,1,18,-82,60,0,00,-116,20,-0,62,0,00,-67,15,-0,62,0,00,-67,15
26469,-1,27,1,18,-10,29,-1,07,0,79,-55,30,0,00,-74,90,-8,82,0,00,-68,31,-8,82,0,00,-68,31
26484,-1,27,0,49,-9,90,-1,07,0,10,-7,00,0,00,-74,90,-8,55,0,00,-69,30,-8,55,0,00,-69,30
26502,-0,49,0,49,-9,90,-0,29,0,10,-7,00,0,00,-20,30,-8,32,0,00,-61,95,-8,32,0,00,-61,95
26523,-0,29,0,00,-9,31,-0,09,-0,39,27,30,0,00,-6,30,-2,97,0,00,-53,60,-2,97,0,00,-53,60
26541,-0,29,0,00,-10,00,-0,09,-0,39,27,30,0,00,-6,30,1,57,0,00,-46,51,1,57,0,00,-46,51
26562,-0,29,0,10,-10,00,-0,09,-0,29,20,30,0,00,-6,30,4,38,0,00,-40,48,4,38,0,00,-40,48
26578,-0,29,0,39,-10,29,-0,09,0,00,-0,00,0,00,-6,30,3,72,0,00,-35,35,3,72,0,00,-35,35
26594,-0,29,0,39,-10,29,-0,09,0,00,-0,00,0,00,-6,30,3,16,0,00,-30,99,3,16,0,00,-30,99
26610,-0,88,0,49,-10,19,-0,68,0,10,-7,00,0,00,-47,60,1,64,0,00,-33,48,1,64,0,00,-33,48
26626,-0,88,0,49,-10,19,-0,68,0,10,-7,00,0,00,-47,60,0,34,0,00,-35,60,0,34,0,00,-35,60
26643,-1,57,0,29,-10,19,-1,37,-0,10,7,00,0,00,-95,90,1,34,0,00,-44,65,1,34,0,00,-44,65
26665,-1,57,0,39,-10,29,-1,37,0,00,-0,00,0,00,-95,90,1,14,0,00,-52,33,1,14,0,00,-52,33
26680,-1,27,0,39,-10,29,-1,07,0,00,-0,00,0,00,-74,90,0,97,0,00,-55,72,0,97,0,00,-55,72
26696,-1,27,-0,39,-10,00,-1,07,-0,78,54,60,0,00,-74,90,9,01,0,00,-58,60,9,01,0,00,-58,60
26711,-1,08,-0,39,-10,00,-0,88,-0,78,54,60,0,00,-61,60,15,85,0,00,-59,05,15,85,0,00,-59,05
26727,-0,78,-0,69,-10,00,-0,58,-1,08,75,60,0,00,-40,60,24,81,0,00,-56,28,24,81,0,00,-56,28
26744,-0,78,-0,69,-10,00,-0,58,-1,08,75,60,0,00,-40,60,32,43,0,00,-53,93,32,43,0,00,-53,93
26761,-0,78,-0,69,-10,00,-0,58,-1,08,75,60,0,00,-40,60,38,91,0,00,-51,93,38,91,0,00,-51,93
26778,-0,78,-0,69,-9,90,-0,58,-1,08,75,60,0,00,-40,60,44,41,0,00,-50,23,44,41,0,00,-50,23
26798,-0,49,-0,98,-9,90,-0,29,-1,37,95,90,0,00,-20,30,52,13,0,00,-45,74,52,13,0,00,-45,74
26814,-0,49,-0,78,-9,31,-0,29,-1,17,81,90,0,00,-20,30,56,60,0,00,-41,92,56,60,0,00,-41,92
26830,0,00,-0,78,-9,31,0,20,-1,17,81,90,0,00,14,00,60,39,0,00,-33,54,60,39,0,00,-33,54
26846,0,00,-0,39,-9,80,0,20,-0,78,54,60,0,00,14,00,59,53,0,00,-26,41,59,53,0,00,-26,41
26862,-0,20,-0,39,-9,80,0,00,-0,78,54,60,0,00,0,00,58,79,0,00,-22,44,58,79,0,00,-22,44
26879,-0,59,0,00,-11,07,-0,39,-0,39,27,30,0,00,-27,30,54,06,0,00,-23,17,54,06,0,00,-23,17
26895,-0,59,0,00,-11,07,-0,39,-0,39,27,30,0,00,-27,30,50,05,0,00,-23,79,50,05,0,00,-23,79
26912,-0,78,0,20,-10,49,-0,58,-0,19,13,30,0,00,-40,60,44,54,0,00,-26,31,44,54,0,00,-26,31
26928,-0,78,0,20,-10,09,-0,58,-0,19,13,30,0,00,-40,60,39,85,0,00,-28,46,39,85,0,00,-28,46
26944,-0,78,0,00,-10,09,-0,58,-0,39,27,30,0,00,-40,60,37,97,0,00,-30,28,37,97,0,00,-30,28
26961,-0,78,0,00,-10,09,-0,58,-0,39,27,30,0,00,-40,60,36,37,0,00,-31,83,36,37,0,00,-31,83
26977,-0,29,-0,20,-10,09,-0,09,-0,59,41,30,0,00,-6,30,37,11,0,00,-28,00,37,11,0,00,-28,00
26993,-0,29,0,10,-10,19,-0,09,-0,29,20,30,0,00,-6,30,34,59,0,00,-24,74,34,59,0,00,-24,74
27009,-0,29,0,10,-10,19,-0,09,-0,29,20,30,0,00,-6,30,32,44,0,00,-21,98,32,44,0,00,-21,98
27026,-0,29,-0,10,-10,00,-0,09,-0,49,34,30,0,00,-6,30,32,72,0,00,-19,62,32,72,0,00,-19,62
27042,-0,20,-0,10,-10,00,0,00,-0,49,34,30,0,00,0,00,32,96,0,00,-16,68,32,96,0,00,-16,68
27058,-0,29,0,00,-10,29,-0,09,-0,39,27,30,0,00,-6,30,32,11,0,00,-15,12,32,11,0,00,-15,12
27074,-0,29,0,00,-10,29,-0,09,-0,39,27,30,0,00,-6,30,31,39,0,00,-13,80,31,39,0,00,-13,80
27090,-0,49,0,00,-10,29,-0,29,-0,39,27,30,0,00,-20,30,30,78,0,00,-14,78,30,78,0,00,-14,78
27106,-0,49,0,00,-10,29,-0,29,-0,39,27,30,0,00,-20,30,30,25,0,00,-15,60,30,25,0,00,-15,60
27122,-0,49,0,00,-10,29,-0,29,-0,39,27,30,0,00,-20,30,29,81,0,00,-16,31,29,81,0,00,-16,31
27139,-0,49,0,00,-10,19,-0,29,-0,39,27,30,0,00,-20,30,29,43,0,00,-16,91,29,43,0,00,-16,91
27160,-0,49,-0,10,-10,19,-0,29,-0,49,34,30,0,00,-20,30,30,16,0,00,-17,42,30,16,0,00,-17,42
27176,-0,49,-0,10,-10,19,-0,29,-0,49,34,30,0,00,-20,30,30,78,0,00,-17,85,30,78,0,00,-17,85
27193,-0,49,-0,10,-10,19,-0,29,-0,49,34,30,0,00,-20,30,31,31,0,00,-18,22,31,31,0,00,-18,22
27209,-0,49,-0,10,-10,19,-0,29,-0,49,34,30,0,00,-20,30,31,76,0,00,-18,53,31,76,0,00,-18,53
27226,-0,49,-0,10,-10,19,-0,29,-0,49,34,30,0,00,-20,30,32,14,0,00,-18,79,32,14,0,00,-18,79
27242,-0,59,0,10,-10,39,-0,39,-0,29,20,30,0,00,-27,30,30,36,0,00,-20,07,30,36,0,00,-20,07
27260,-0,59,0,10,-10,29,-0,39,-0,29,20,30,0,00,-27,30,28,86,0,00,-21,15,28,86,0,00,-21,15
27276,-0,29,0,00,-10,29,-0,09,-0,39,27,30,0,00,-6,30,28,62,0,00,-18,93,28,62,0,00,-18,93
27292,-0,29,0,00,-9,80,-0,09,-0,39,27,30,0,00,-6,30,28,42,0,00,-17,03,28,42,0,00,-17,03
27309,-0,29,-0,20,-9,80,-0,09,-0,59,41,30,0,00,-6,30,30,36,0,00,-15,42,30,36,0,00,-15,42
27326,-0,29,-0,20,-10,29,-0,09,-0,59,41,30,0,00,-6,30,32,00,0,00,-14,05,32,00,0,00,-14,05
27344,-0,29,-0,20,-10,29,-0,09,-0,59,41,30,0,00,-6,30,33,39,0,00,-12,89,33,39,0,00,-12,89
27363,-0,29,0,20,-10,29,-0,09,-0,19,13,30,0,00,-6,30,30,38,0,00,-11,90,30,38,0,00,-11,90
27379,-0,29,0,20,-10,09,-0,09,-0,19,13,30,0,00,-6,30,27,82,0,00,-11,06,27,82,0,00,-11,06
27396,-0,20,0,00,-10,09,0,00,-0,39,27,30,0,00,0,00,27,74,0,00,-9,40,27,74,0,00,-9,40
27415,-0,20,0,00,-10,29,0,00,-0,39,27,30,0,00,0,00,27,67,0,00,-7,99,27,67,0,00,-7,99
27431,-0,29,0,00,-10,29,-0,09,-0,39,27,30,0,00,-6,30,27,62,0,00,-7,74,27,62,0,00,-7,74
27447,-0,29,-0,20,-10,09,-0,09,-0,59,41,30,0,00,-6,30,29,67,0,00,-7,52,29,67,0,00,-7,52
27463,-0,29,-0,20,-10,09,-0,09,-0,59,41,30,0,00,-6,30,31,41,0,00,-7,34,31,41,0,00,-7,34
27478,-0,20,-0,10,-10,00,0,00,-0,49,34,30,0,00,0,00,31,85,0,00,-6,24,31,85,0,00,-6,24
27494,-0,20,-0,10,-10,00,0,00,-0,49,34,30,0,00,0,00,32,22,0,00,-5,30,32,22,0,00,-5,30
27510,-0,20,-0,10,-10,39,0,00,-0,49,34,30,0,00,0,00,32,53,0,00,-4,51,32,53,0,00,-4,51
27526,-0,20,-0,10,-10,39,0,00,-0,49,34,30,0,00,0,00,32,79,0,00,-3,83,32,79,0,00,-3,83
27542,-0,20,0,10,-10,19,0,00,-0,29,20,30,0,00,0,00,30,92,0,00,-3,26,30,92,0,00,-3,26
27561,-0,20,0,10,-10,19,0,00,-0,29,20,30,0,00,0,00,29,33,0,00,-2,77,29,33,0,00,-2,77
27577,-0,20,0,10,-10,19,0,00,-0,29,20,30,0,00,0,00,27,97,0,00,-2,35,27,97,0,00,-2,35
27593,-0,20,0,10,-10,19,0,00,-0,29,20,30,0,00,0,00,26,82,0,00,-2,00,26,82,0,00,-2,00
27609,-0,20,0,10,-10,19,0,00,-0,29,20,30,0,00,0,00,25,84,0,00,-1,70,25,84,0,00,-1,70
27626,-0,20,-0,20,-10,09,0,00,-0,59,41,30,0,00,0,00,28,16,0,00,-1,44,28,16,0,00,-1,44
27642,-0,59,-0,20,-10,09,-0,39,-0,59,41,30,0,00,-27,30,30,13,0,00,-5,32,30,13,0,00,-5,32
27659,-0,59,0,10,-10,39,-0,39,-0,29,20,30,0,00,-27,30,28,66,0,00,-8,62,28,66,0,00,-8,62
27676,-0,59,0,10,-10,39,-0,39,-0,29,20,30,0,00,-27,30,27,40,0,00,-11,42,27,40,0,00,-11,42
27692,-0,29,0,20,-10,49,-0,09,-0,19,13,30,0,00,-6,30,25,29,0,00,-10,65,25,29,0,00,-10,65
27718,-0,29,0,20,-10,49,-0,09,-0,19,13,30,0,00,-6,30,23,49,0,00,-10,00,23,49,0,00,-10,00
27735,-0,29,0,20,-10,49,-0,09,-0,19,13,30,0,00,-6,30,21,96,0,00,-9,45,21,96,0,00,-9,45
27752,-0,49,0,00,-10,29,-0,29,-0,39,27,30,0,00,-20,30,22,76,0,00,-11,07,22,76,0,00,-11,07
27772,-0,49,0,00,-10,00,-0,29,-0,39,27,30,0,00,-20,30,23,44,0,00,-12,46,23,44,0,00,-12,46
27791,-0,49,-0,10,-10,00,-0,29,-0,49,34,30,0,00,-20,30,25,07,0,00,-13,63,25,07,0,00,-13,63
27813,-0,20,0,10,-10,39,0,00,-0,29,20,30,0,00,0,00,24,36,0,00,-11,59,24,36,0,00,-11,59
27831,-0,20,0,10,-10,19,0,00,-0,29,20,30,0,00,0,00,23,75,0,00,-9,85,23,75,0,00,-9,85
27848,0,00,-0,10,-10,19,0,20,-0,49,34,30,0,00,14,00,25,33,0,00,-6,27,25,33,0,00,-6,27
27864,0,00,0,00,-10,09,0,20,-0,39,27,30,0,00,14,00,25,63,0,00,-3,23,25,63,0,00,-3,23
27880,0,00,0,00,-10,09,0,20,-0,39,27,30,0,00,14,00,25,88,0,00,-0,65,25,88,0,00,-0,65
27896,0,00,-0,10,-10,19,0,20,-0,49,34,30,0,00,14,00,27,14,0,00,1,55,27,14,0,00,1,55
27912,-0,29,-0,10,-10,19,-0,09,-0,49,34,30,0,00,-6,30,28,21,0,00,0,37,28,21,0,00,0,37
27929,-0,29,0,00,-10,29,-0,09,-0,39,27,30,0,00,-6,30,28,08,0,00,-0,63,28,08,0,00,-0,63
27945,-0,29,0,00,-10,29,-0,09,-0,39,27,30,0,00,-6,30,27,96,0,00,-1,48,27,96,0,00,-1,48
27962,-0,29,0,00,-10,29,-0,09,-0,39,27,30,0,00,-6,30,27,86,0,00,-2,20,27,86,0,00,-2,20
27978,-0,29,0,00,-10,09,-0,09,-0,39,27,30,0,00,-6,30,27,78,0,00,-2,82,27,78,0,00,-2,82
27994,-0,29,0,00,-10,09,-0,09,-0,39,27,30,0,00,-6,30,27,71,0,00,-3,34,27,71,0,00,-3,34
28010,-0,29,0,00,-10,09,-0,09,-0,39,27,30,0,00,-6,30,27,64,0,00,-3,78,27,64,0,00,-3,78
28027,-0,29,0,00,-10,09,-0,09,-0,39,27,30,0,00,-6,30,27,59,0,00,-4,16,27,59,0,00,-4,16
28043,-0,29,0,00,-10,19,-0,09,-0,39,27,30,0,00,-6,30,27,55,0,00,-4,48,27,55,0,00,-4,48
28062,-0,49,-0,10,-10,19,-0,29,-0,49,34,30,0,00,-20,30,28,56,0,00,-6,85,28,56,0,00,-6,85
28079,-0,20,0,20,-10,49,0,00,-0,19,13,30,0,00,0,00,26,27,0,00,-5,83,26,27,0,00,-5,83
28098,-0,20,0,20,-10,49,0,00,-0,19,13,30,0,00,0,00,24,33,0,00,-4,95,24,33,0,00,-4,95
28114,-0,59,0,10,-10,39,-0,39,-0,29,20,30,0,00,-27,30,23,72,0,00,-8,30,23,72,0,00,-8,30
28130,-0,59,0,10,-10,78,-0,39,-0,29,20,30,0,00,-27,30,23,21,0,00,-11,15,23,21,0,00,-11,15
28149,-0,88,0,20,-10,78,-0,68,-0,19,13,30,0,00,-47,60,21,72,0,00,-16,62,21,72,0,00,-16,62
28168,-0,88,0,00,-9,31,-0,68,-0,39,27,30,0,00,-47,60,22,56,0,00,-21,27,22,56,0,00,-21,27
28188,0,49,0,00,-10,29,0,69,-0,39,27,30,0,00,48,30,23,27,0,00,-10,83,23,27,0,00,-10,83
28205,0,00,-0,20,-10,29,0,20,-0,59,41,30,0,00,14,00,25,97,0,00,-7,11,25,97,0,00,-7,11
28227,0,00,-0,20,-10,29,0,20,-0,59,41,30,0,00,14,00,28,27,0,00,-3,94,28,27,0,00,-3,94
28245,-0,29,-0,20,-10,29,-0,09,-0,59,41,30,0,00,-6,30,30,23,0,00,-4,30,30,23,0,00,-4,30
28262,-0,49,0,00,-10,49,-0,29,-0,39,27,30,0,00,-20,30,29,79,0,00,-6,70,29,79,0,00,-6,70
28279,-0,49,0,00,-9,80,-0,29,-0,39,27,30,0,00,-20,30,29,42,0,00,-8,74,29,42,0,00,-8,74
28295,-0,29,-0,39,-9,80,-0,09,-0,78,54,60,0,00,-6,30,33,19,0,00,-8,37,33,19,0,00,-8,37
28312,-0,29,-0,39,-10,29,-0,09,-0,78,54,60,0,00,-6,30,36,40,0,00,-8,06,36,40,0,00,-8,06
28329,0,20,0,20,-10,29,0,40,-0,19,13,30,0,00,28,00,32,94,0,00,-2,65,32,94,0,00,-2,65
28349,0,20,0,00,-9,90,0,40,-0,39,27,30,0,00,28,00,32,09,0,00,1,95,32,09,0,00,1,95
28370,0,49,0,00,-9,90,0,69,-0,39,27,30,0,00,48,30,31,37,0,00,8,90,31,37,0,00,8,90
28386,0,29,0,00,-9,90,0,49,-0,39,27,30,0,00,34,30,30,76,0,00,12,71,30,76,0,00,12,71
28402,0,29,0,00,-9,70,0,49,-0,39,27,30,0,00,34,30,30,24,0,00,15,95,30,24,0,00,15,95
28418,0,00,-0,29,-9,70,0,20,-0,68,47,60,0,00,14,00,32,85,0,00,15,66,32,85,0,00,15,66
28434,0,00,-0,10,-10,39,0,20,-0,49,34,30,0,00,14,00,33,06,0,00,15,41,33,06,0,00,15,41
28450,-0,59,-0,10,-10,39,-0,39,-0,49,34,30,0,00,-27,30,33,25,0,00,9,00,33,25,0,00,9,00
28466,-0,59,-0,10,-10,39,-0,39,-0,49,34,30,0,00,-27,30,33,41,0,00,3,56,33,41,0,00,3,56
28482,-0,59,-0,10,-10,39,-0,39,-0,49,34,30,0,00,-27,30,33,54,0,00,-1,07,33,54,0,00,-1,07
28497,-0,59,0,10,-10,58,-0,39,-0,29,20,30,0,00,-27,30,31,56,0,00,-5,01,31,56,0,00,-5,01
28513,-0,59,0,10,-10,58,-0,39,-0,29,20,30,0,00,-27,30,29,87,0,00,-8,35,29,87,0,00,-8,35
28529,0,00,-0,20,-9,80,0,20,-0,59,41,30,0,00,14,00,31,58,0,00,-5,00,31,58,0,00,-5,00
28549,0,00,-0,20,-10,39,0,20,-0,59,41,30,0,00,14,00,33,04,0,00,-2,15,33,04,0,00,-2,15
28568,-0,20,-0,10,-10,39,0,00,-0,49,34,30,0,00,0,00,33,23,0,00,-1,83,33,23,0,00,-1,83
28584,-0,20,-0,29,-10,68,0,00,-0,68,47,60,0,00,0,00,35,38,0,00,-1,55,35,38,0,00,-1,55
28604,0,00,-0,29,-10,68,0,20,-0,68,47,60,0,00,14,00,37,22,0,00,0,78,37,22,0,00,0,78
28621,-0,49,-0,59,-10,09,-0,29,-0,98,68,60,0,00,-20,30,41,92,0,00,-2,38,41,92,0,00,-2,38
28637,-0,49,-0,59,-10,29,-0,29,-0,98,68,60,0,00,-20,30,45,93,0,00,-5,07,45,93,0,00,-5,07
28654,-0,20,0,20,-10,29,0,00,-0,19,13,30,0,00,0,00,41,03,0,00,-4,31,41,03,0,00,-4,31
28670,-0,20,0,20,-10,19,0,00,-0,19,13,30,0,00,0,00,36,87,0,00,-3,66,36,87,0,00,-3,66
28686,0,00,0,10,-10,19,0,20,-0,29,20,30,0,00,14,00,34,39,0,00,-1,01,34,39,0,00,-1,01
28704,0,00,0,10,-10,39,0,20,-0,29,20,30,0,00,14,00,32,27,0,00,1,24,32,27,0,00,1,24
28719,0,29,0,10,-10,39,0,49,-0,29,20,30,0,00,34,30,30,48,0,00,6,20,30,48,0,00,6,20
28734,0,29,-0,10,-10,00,0,49,-0,49,34,30,0,00,34,30,31,05,0,00,10,41,31,05,0,00,10,41
28752,0,59,-0,10,-10,00,0,79,-0,49,34,30,0,00,55,30,31,54,0,00,17,15,31,54,0,00,17,15
28771,0,29,-0,29,-9,70,0,49,-0,68,47,60,0,00,34,30,33,95,0,00,19,72,33,95,0,00,19,72
28786,0,29,-0,29,-9,70,0,49,-0,68,47,60,0,00,34,30,36,00,0,00,21,91,36,00,0,00,21,91
28801,0,20,0,20,-10,49,0,40,-0,19,13,30,0,00,28,00,32,59,0,00,22,82,32,59,0,00,22,82
28818,0,20,0,20,-10,49,0,40,-0,19,13,30,0,00,28,00,29,70,0,00,23,60,29,70,0,00,23,60
28836,0,20,0,20,-10,49,0,40,-0,19,13,30,0,00,28,00,27,24,0,00,24,26,27,24,0,00,24,26
28853,0,20,-0,39,-10,00,0,40,-0,78,54,60,0,00,28,00,31,34,0,00,24,82,31,34,0,00,24,82
28868,0,00,-0,39,-10,00,0,20,-0,78,54,60,0,00,14,00,34,83,0,00,23,20,34,83,0,00,23,20
28890,0,00,-0,39,-10,00,0,20,-0,78,54,60,0,00,14,00,37,80,0,00,21,82,37,80,0,00,21,82
28914,0,00,-0,39,-10,98,0,20,-0,78,54,60,0,00,14,00,40,32,0,00,20,64,40,32,0,00,20,64
28936,-0,29,-0,10,-10,98,-0,09,-0,49,34,30,0,00,-6,30,39,41,0,00,16,60,39,41,0,00,16,60
28952,0,00,-0,39,-10,00,0,20,-0,78,54,60,0,00,14,00,41,69,0,00,16,21,41,69,0,00,16,21
28968,0,00,-0,39,-10,00,0,20,-0,78,54,60,0,00,14,00,43,63,0,00,15,88,43,63,0,00,15,88
28986,-0,78,-1,18,-11,27,-0,58,-1,57,109,90,0,00,-40,60,53,57,0,00,7,41,53,57,0,00,7,41
29002,-0,78,-1,18,-10,00,-0,58,-1,57,109,90,0,00,-40,60,62,02,0,00,0,21,62,02,0,00,0,21
29017,0,20,-0,69,-10,00,0,40,-1,08,75,60,0,00,28,00,64,06,0,00,4,38,64,06,0,00,4,38
29034,0,20,-0,78,-8,92,0,40,-1,17,81,90,0,00,28,00,66,73,0,00,7,92,66,73,0,00,7,92
29051,0,78,-0,78,-8,92,0,98,-1,17,81,90,0,00,68,60,69,01,0,00,17,02,69,01,0,00,17,02
29067,0,78,-0,10,-10,00,0,98,-0,49,34,30,0,00,68,60,63,80,0,00,24,76,63,80,0,00,24,76
29083,0,59,-0,10,-10,00,0,79,-0,49,34,30,0,00,55,30,59,38,0,00,29,34,59,38,0,00,29,34
29100,0,29,-0,69,-10,49,0,49,-1,08,75,60,0,00,34,30,61,81,0,00,30,08,61,81,0,00,30,08
29116,0,29,-0,69,-10,49,0,49,-1,08,75,60,0,00,34,30,63,88,0,00,30,72,63,88,0,00,30,72
29131,-0,20,-0,88,-10,19,0,00,-1,27,88,90,0,00,0,00,67,63,0,00,26,11,67,63,0,00,26,11
29150,-0,20,-0,88,-10,78,0,00,-1,27,88,90,0,00,0,00,70,82,0,00,22,19,70,82,0,00,22,19
29166,-0,29,-0,39,-10,78,-0,09,-0,78,54,60,0,00,-6,30,68,39,0,00,17,92,68,39,0,00,17,92
29181,-0,29,-0,39,-9,80,-0,09,-0,78,54,60,0,00,-6,30,66,32,0,00,14,29,66,32,0,00,14,29
29197,0,29,-1,08,-9,80,0,49,-1,47,102,90,0,00,34,30,71,81,0,00,17,29,71,81,0,00,17,29
29213,0,29,-0,98,-9,70,0,49,-1,37,95,90,0,00,34,30,75,42,0,00,19,84,75,42,0,00,19,84
29229,0,59,-0,98,-9,70,0,79,-1,37,95,90,0,00,55,30,78,49,0,00,25,16,78,49,0,00,25,16
29245,0,59,-0,78,-10,29,0,79,-1,17,81,90,0,00,55,30,79,00,0,00,29,68,79,00,0,00,29,68
29260,0,49,-0,78,-10,29,0,69,-1,17,81,90,0,00,48,30,79,44,0,00,32,47,79,44,0,00,32,47
29276,0,49,-0,78,-10,09,0,69,-1,17,81,90,0,00,48,30,79,81,0,00,34,85,79,81,0,00,34,85
29292,0,59,-0,78,-10,09,0,79,-1,17,81,90,0,00,55,30,80,12,0,00,37,91,80,12,0,00,37,91
29309,0,59,-0,78,-10,09,0,79,-1,17,81,90,0,00,55,30,80,39,0,00,40,52,80,39,0,00,40,52
29328,0,59,-0,78,-10,09,0,79,-1,17,81,90,0,00,55,30,80,62,0,00,42,74,80,62,0,00,42,74
29344,0,78,-0,59,-10,39,0,98,-0,98,68,60,0,00,68,60,78,81,0,00,46,62,78,81,0,00,46,62
29365,0,78,-0,78,-9,90,0,98,-1,17,81,90,0,00,68,60,79,28,0,00,49,92,79,28,0,00,49,92
29386,0,59,-0,78,-9,90,0,79,-1,17,81,90,0,00,55,30,79,67,0,00,50,72,79,67,0,00,50,72
29405,0,49,-0,59,-10,09,0,69,-0,98,68,60,0,00,48,30,78,01,0,00,50,36,78,01,0,00,50,36
29421,0,49,-0,59,-10,00,0,69,-0,98,68,60,0,00,48,30,76,60,0,00,50,05,76,60,0,00,50,05
29442,0,49,-0,69,-10,00,0,69,-1,08,75,60,0,00,48,30,76,45,0,00,49,79,76,45,0,00,49,79
29459,0,49,-0,78,-10,29,0,69,-1,17,81,90,0,00,48,30,77,27,0,00,49,56,77,27,0,00,49,56
29477,0,29,-0,78,-10,29,0,49,-1,17,81,90,0,00,34,30,77,96,0,00,47,28,77,96,0,00,47,28
29495,0,29,-0,98,-10,09,0,49,-1,37,95,90,0,00,34,30,80,65,0,00,45,33,80,65,0,00,45,33
