Time,RawAccelX,RawAccelY,RawAccelZ,CalibRobotX,CalibRobotY,TargetModelPitch(X),TargetModelYaw(Y),TargetModelRoll(Z),CurrentModelPitch(X),CurrentModelYaw(Y),CurrentModelRoll(Z),ClampedModelPitch(X),ClampedModelYaw(Y),ClampedModelRoll(Z)
540,0,00,0,39,-10,09,0,20,0,00,0,00,0,00,14,00,0,00,0,00,2,10,0,00,0,00,2,10
592,0,00,0,39,-10,09,0,20,0,00,0,00,0,00,14,00,0,00,0,00,3,89,0,00,0,00,3,89
714,0,00,0,29,-10,00,0,20,-0,10,-7,00,0,00,14,00,-1,05,0,00,5,40,-1,05,0,00,5,40
743,-0,20,0,29,-10,19,0,00,-0,10,-7,00,0,00,0,00,-1,94,0,00,4,59,-1,94,0,00,4,59
777,-0,20,0,29,-10,19,0,00,-0,10,-7,00,0,00,0,00,-2,70,0,00,3,90,-2,70,0,00,3,90
805,0,00,0,29,-10,19,0,20,-0,10,-7,00,0,00,14,00,-3,35,0,00,5,42,-3,35,0,00,5,42
834,0,00,0,39,-10,09,0,20,0,00,0,00,0,00,14,00,-2,84,0,00,6,71,-2,84,0,00,6,71
864,-0,20,0,39,-10,09,0,00,0,00,0,00,0,00,0,00,-2,42,0,00,5,70,-2,42,0,00,5,70
890,-0,20,0,39,-10,09,0,00,0,00,0,00,0,00,0,00,-2,05,0,00,4,84,-2,05,0,00,4,84
914,-0,20,0,39,-10,09,0,00,0,00,0,00,0,00,0,00,-1,75,0,00,4,12,-1,75,0,00,4,12
935,-0,20,0,39,-10,09,0,00,0,00,0,00,0,00,0,00,-1,48,0,00,3,50,-1,48,0,00,3,50
964,0,00,0,29,-10,19,0,20,-0,10,-7,00,0,00,14,00,-2,31,0,00,5,08,-2,31,0,00,5,08
989,-0,20,0,29,-10,09,0,00,-0,10,-7,00,0,00,0,00,-3,02,0,00,4,31,-3,02,0,00,4,31
1015,-0,20,0,39,-10,09,0,00,0,00,0,00,0,00,0,00,-2,56,0,00,3,67,-2,56,0,00,3,67
1041,-0,20,0,29,-10,19,0,00,-0,10,-7,00,0,00,0,00,-3,23,0,00,3,12,-3,23,0,00,3,12
1065,-0,20,0,39,-10,09,0,00,0,00,0,00,0,00,0,00,-2,74,0,00,2,65,-2,74,0,00,2,65
1093,-0,20,0,39,-10,09,0,00,0,00,0,00,0,00,0,00,-2,33,0,00,2,25,-2,33,0,00,2,25
1118,0,00,0,39,-10,09,0,20,0,00,0,00,0,00,14,00,-1,98,0,00,4,01,-1,98,0,00,4,01
1144,-0,20,0,39,-10,09,0,00,0,00,0,00,0,00,0,00,-1,69,0,00,3,41,-1,69,0,00,3,41
1174,-0,20,0,39,-10,09,0,00,0,00,0,00,0,00,0,00,-1,43,0,00,2,90,-1,43,0,00,2,90
1198,-0,20,0,39,-10,09,0,00,0,00,0,00,0,00,0,00,-1,22,0,00,2,47,-1,22,0,00,2,47
1219,-0,20,0,39,-10,09,0,00,0,00,0,00,0,00,0,00,-1,03,0,00,2,10,-1,03,0,00,2,10
1247,-0,20,0,29,-10,19,0,00,-0,10,-7,00,0,00,0,00,-1,93,0,00,1,78,-1,93,0,00,1,78
1271,-0,20,0,29,-10,19,0,00,-0,10,-7,00,0,00,0,00,-2,69,0,00,1,51,-2,69,0,00,1,51
1300,-0,20,0,29,-10,19,0,00,-0,10,-7,00,0,00,0,00,-3,34,0,00,1,29,-3,34,0,00,1,29
1324,-0,20,0,39,-10,09,0,00,0,00,0,00,0,00,0,00,-2,84,0,00,1,09,-2,84,0,00,1,09
1346,-0,20,0,39,-10,09,0,00,0,00,0,00,0,00,0,00,-2,41,0,00,0,93,-2,41,0,00,0,93
1368,-0,20,0,39,-10,09,0,00,0,00,0,00,0,00,0,00,-2,05,0,00,0,79,-2,05,0,00,0,79
1397,-0,20,0,39,-10,09,0,00,0,00,0,00,0,00,0,00,-1,74,0,00,0,67,-1,74,0,00,0,67
1418,-0,20,0,39,-10,09,0,00,0,00,0,00,0,00,0,00,-1,48,0,00,0,57,-1,48,0,00,0,57
1438,-0,20,0,39,-10,09,0,00,0,00,0,00,0,00,0,00,-1,26,0,00,0,49,-1,26,0,00,0,49
1464,-0,20,0,39,-10,09,0,00,0,00,0,00,0,00,0,00,-1,07,0,00,0,41,-1,07,0,00,0,41
1505,-0,20,0,39,-10,09,0,00,0,00,0,00,0,00,0,00,-0,91,0,00,0,35,-0,91,0,00,0,35
1545,0,00,0,39,-10,29,0,20,0,00,0,00,0,00,14,00,-0,77,0,00,2,40,-0,77,0,00,2,40
1577,0,00,0,39,-10,49,0,20,0,00,0,00,0,00,14,00,-0,66,0,00,4,14,-0,66,0,00,4,14
1613,-0,20,0,49,-10,09,0,00,0,10,7,00,0,00,0,00,0,49,0,00,3,52,0,49,0,00,3,52
1644,-0,20,0,29,-10,19,0,00,-0,10,-7,00,0,00,0,00,-0,63,0,00,2,99,-0,63,0,00,2,99
1671,-0,20,0,39,-10,09,0,00,0,00,0,00,0,00,0,00,-0,54,0,00,2,54,-0,54,0,00,2,54
1699,-0,20,0,39,-10,29,0,00,0,00,0,00,0,00,0,00,-0,46,0,00,2,16,-0,46,0,00,2,16
1725,-0,20,0,39,-10,29,0,00,0,00,0,00,0,00,0,00,-0,39,0,00,1,84,-0,39,0,00,1,84
1759,0,00,0,29,-10,19,0,20,-0,10,-7,00,0,00,14,00,-1,38,0,00,3,66,-1,38,0,00,3,66
1790,0,00,0,29,-10,19,0,20,-0,10,-7,00,0,00,14,00,-2,22,0,00,5,21,-2,22,0,00,5,21
1816,0,00,0,39,-10,09,0,20,0,00,0,00,0,00,14,00,-1,89,0,00,6,53,-1,89,0,00,6,53
1842,-0,20,0,39,-10,09,0,00,0,00,0,00,0,00,0,00,-1,61,0,00,5,55,-1,61,0,00,5,55
1869,-0,20,0,39,-10,09,0,00,0,00,0,00,0,00,0,00,-1,37,0,00,4,72,-1,37,0,00,4,72
1893,-0,20,0,39,-10,19,0,00,0,00,0,00,0,00,0,00,-1,16,0,00,4,01,-1,16,0,00,4,01
1915,-0,20,0,29,-10,19,0,00,-0,10,-7,00,0,00,0,00,-2,04,0,00,3,41,-2,04,0,00,3,41
1940,-0,20,0,39,-10,09,0,00,0,00,0,00,0,00,0,00,-1,73,0,00,2,90,-1,73,0,00,2,90
1964,-0,20,0,39,-10,09,0,00,0,00,0,00,0,00,0,00,-1,47,0,00,2,46,-1,47,0,00,2,46
1983,-0,20,0,39,-10,09,0,00,0,00,0,00,0,00,0,00,-1,25,0,00,2,09,-1,25,0,00,2,09
2003,-0,20,0,39,-10,09,0,00,0,00,0,00,0,00,0,00,-1,06,0,00,1,78,-1,06,0,00,1,78
2022,-0,29,0,39,-10,09,-0,09,0,00,0,00,0,00,-6,30,-0,90,0,00,0,57,-0,90,0,00,0,57
2042,-0,29,0,49,-10,19,-0,09,0,10,7,00,0,00,-6,30,0,28,0,00,-0,46,0,28,0,00,-0,46
2065,-0,20,0,49,-10,19,0,00,0,10,7,00,0,00,0,00,1,29,0,00,-0,39,1,29,0,00,-0,39
2084,-0,20,0,39,-10,09,0,00,0,00,0,00,0,00,0,00,1,10,0,00,-0,33,1,10,0,00,-0,33
2106,-0,20,0,39,-10,09,0,00,0,00,0,00,0,00,0,00,0,93,0,00,-0,28,0,93,0,00,-0,28
2126,0,00,0,39,-10,09,0,20,0,00,0,00,0,00,14,00,0,79,0,00,1,86,0,79,0,00,1,86
2145,-0,20,0,39,-10,09,0,00,0,00,0,00,0,00,0,00,0,67,0,00,1,58,0,67,0,00,1,58
2166,-0,20,0,39,-10,09,0,00,0,00,0,00,0,00,0,00,0,57,0,00,1,34,0,57,0,00,1,34
2185,-0,20,0,39,-10,09,0,00,0,00,0,00,0,00,0,00,0,49,0,00,1,14,0,49,0,00,1,14
2205,-0,20,0,39,-10,09,0,00,0,00,0,00,0,00,0,00,0,41,0,00,0,97,0,41,0,00,0,97
2228,-0,20,0,29,-10,19,0,00,-0,10,-7,00,0,00,0,00,-0,70,0,00,0,82,-0,70,0,00,0,82
2247,-0,20,0,29,-10,19,0,00,-0,10,-7,00,0,00,0,00,-1,64,0,00,0,70,-1,64,0,00,0,70
2266,-0,20,0,29,-10,19,0,00,-0,10,-7,00,0,00,0,00,-2,45,0,00,0,60,-2,45,0,00,0,60
2284,-0,20,0,29,-10,19,0,00,-0,10,-7,00,0,00,0,00,-3,13,0,00,0,51,-3,13,0,00,0,51
2311,-0,20,0,29,-10,19,0,00,-0,10,-7,00,0,00,0,00,-3,71,0,00,0,43,-3,71,0,00,0,43
2340,-0,20,0,29,-10,09,0,00,-0,10,-7,00,0,00,0,00,-4,20,0,00,0,37,-4,20,0,00,0,37
2369,-0,20,0,39,-10,09,0,00,0,00,0,00,0,00,0,00,-3,57,0,00,0,31,-3,57,0,00,0,31
2389,-0,20,0,39,-10,09,0,00,0,00,0,00,0,00,0,00,-3,04,0,00,0,26,-3,04,0,00,0,26
2411,-0,20,0,39,-10,09,0,00,0,00,0,00,0,00,0,00,-2,58,0,00,0,22,-2,58,0,00,0,22
2432,-0,20,0,39,-10,09,0,00,0,00,0,00,0,00,0,00,-2,19,0,00,0,19,-2,19,0,00,0,19
2450,-0,20,0,39,-10,09,0,00,0,00,0,00,0,00,0,00,-1,87,0,00,0,16,-1,87,0,00,0,16
2471,-0,20,0,29,-10,19,0,00,-0,10,-7,00,0,00,0,00,-2,64,0,00,0,14,-2,64,0,00,0,14
2497,-0,20,0,39,-10,09,0,00,0,00,0,00,0,00,0,00,-2,24,0,00,0,12,-2,24,0,00,0,12
2519,-0,20,0,39,-10,19,0,00,0,00,0,00,0,00,0,00,-1,90,0,00,0,10,-1,90,0,00,0,10
2539,0,00,0,29,-10,19,0,20,-0,10,-7,00,0,00,14,00,-2,67,0,00,2,18,-2,67,0,00,2,18
2557,0,00,0,29,-10,19,0,20,-0,10,-7,00,0,00,14,00,-3,32,0,00,3,96,-3,32,0,00,3,96
2576,0,00,0,29,-10,19,0,20,-0,10,-7,00,0,00,14,00,-3,87,0,00,5,46,-3,87,0,00,5,46
2592,-0,20,0,29,-10,19,0,00,-0,10,-7,00,0,00,0,00,-4,34,0,00,4,64,-4,34,0,00,4,64
2609,-0,20,0,29,-10,19,0,00,-0,10,-7,00,0,00,0,00,-4,74,0,00,3,95,-4,74,0,00,3,95
2628,-0,20,0,29,-10,19,0,00,-0,10,-7,00,0,00,0,00,-5,08,0,00,3,36,-5,08,0,00,3,36
2649,-0,20,0,39,-10,09,0,00,0,00,0,00,0,00,0,00,-4,32,0,00,2,85,-4,32,0,00,2,85
2667,-0,20,0,39,-10,09,0,00,0,00,0,00,0,00,0,00,-3,67,0,00,2,42,-3,67,0,00,2,42
2685,-0,20,0,29,-10,19,0,00,-0,10,-7,00,0,00,0,00,-4,17,0,00,2,06,-4,17,0,00,2,06
2703,-0,20,0,39,-10,09,0,00,0,00,0,00,0,00,0,00,-3,54,0,00,1,75,-3,54,0,00,1,75
2720,0,00,0,39,-10,09,0,20,0,00,0,00,0,00,14,00,-3,01,0,00,3,59,-3,01,0,00,3,59
2736,0,00,0,39,-10,09,0,20,0,00,0,00,0,00,14,00,-2,56,0,00,5,15,-2,56,0,00,5,15
2752,-0,20,0,39,-10,09,0,00,0,00,0,00,0,00,0,00,-2,18,0,00,4,38,-2,18,0,00,4,38
2768,-0,20,0,39,-10,09,0,00,0,00,0,00,0,00,0,00,-1,85,0,00,3,72,-1,85,0,00,3,72
2784,-0,20,0,39,-10,09,0,00,0,00,0,00,0,00,0,00,-1,57,0,00,3,16,-1,57,0,00,3,16
2800,0,00,0,29,-10,19,0,20,-0,10,-7,00,0,00,14,00,-2,39,0,00,4,79,-2,39,0,00,4,79
2829,0,00,0,29,-10,19,0,20,-0,10,-7,00,0,00,14,00,-3,08,0,00,6,17,-3,08,0,00,6,17
2847,-0,20,0,29,-10,19,0,00,-0,10,-7,00,0,00,0,00,-3,67,0,00,5,24,-3,67,0,00,5,24
2864,0,00,0,39,-10,09,0,20,0,00,0,00,0,00,14,00,-3,12,0,00,6,56,-3,12,0,00,6,56
2883,0,00,0,39,-10,09,0,20,0,00,0,00,0,00,14,00,-2,65,0,00,7,67,-2,65,0,00,7,67
2902,0,00,0,39,-10,09,0,20,0,00,0,00,0,00,14,00,-2,25,0,00,8,62,-2,25,0,00,8,62
2920,-0,20,0,29,-10,19,0,00,-0,10,-7,00,0,00,0,00,-2,96,0,00,7,33,-2,96,0,00,7,33
2940,-0,20,0,29,-10,19,0,00,-0,10,-7,00,0,00,0,00,-3,57,0,00,6,23,-3,57,0,00,6,23
2958,0,00,0,49,-10,19,0,20,0,10,7,00,0,00,14,00,-1,98,0,00,7,40,-1,98,0,00,7,40
2976,0,00,0,10,-10,39,0,20,-0,29,-20,30,0,00,14,00,-4,73,0,00,8,39,-4,73,0,00,8,39
2994,-0,49,0,10,-10,39,-0,29,-0,29,-20,30,0,00,-20,30,-7,07,0,00,4,08,-7,07,0,00,4,08
3013,0,00,0,29,-10,19,0,20,-0,10,-7,00,0,00,14,00,-7,06,0,00,5,57,-7,06,0,00,5,57
3030,0,00,0,29,-10,19,0,20,-0,10,-7,00,0,00,14,00,-7,05,0,00,6,84,-7,05,0,00,6,84
3047,0,00,0,29,-10,19,0,20,-0,10,-7,00,0,00,14,00,-7,00,0,00,7,91,-7,00,0,00,7,91
3065,0,00,0,29,-10,19,0,20,-0,10,-7,00,0,00,14,00,-7,00,0,00,8,82,-7,00,0,00,8,82
3083,0,20,0,29,-10,19,0,40,-0,10,-7,00,0,00,28,00,-7,00,0,00,11,70,-7,00,0,00,11,70
3100,-1,27,0,69,-10,09,-1,07,0,30,21,00,0,00,-74,90,-2,80,0,00,-1,29,-2,80,0,00,-1,29
3117,-1,27,0,69,-10,09,-1,07,0,30,21,00,0,00,-74,90,0,77,0,00,-12,33,0,77,0,00,-12,33
3134,0,20,0,39,-10,09,0,40,0,00,0,00,0,00,28,00,0,65,0,00,-6,28,0,65,0,00,-6,28
3154,0,20,0,20,-10,09,0,40,-0,19,-13,30,0,00,28,00,-1,44,0,00,-1,14,-1,44,0,00,-1,14
3172,0,00,0,20,-10,09,0,20,-0,19,-13,30,0,00,14,00,-3,22,0,00,1,13,-3,22,0,00,1,13
3190,0,00,0,29,-10,00,0,20,-0,10,-7,00,0,00,14,00,-3,79,0,00,3,06,-3,79,0,00,3,06
3209,0,00,0,29,-10,29,0,20,-0,10,-7,00,0,00,14,00,-4,27,0,00,4,70,-4,27,0,00,4,70
3229,-0,20,0,39,-10,29,0,00,0,00,0,00,0,00,0,00,-3,63,0,00,4,00,-3,63,0,00,4,00
3246,-0,20,0,39,-10,09,0,00,0,00,0,00,0,00,0,00,-3,08,0,00,3,40,-3,08,0,00,3,40
3263,-0,20,0,39,-10,09,0,00,0,00,0,00,0,00,0,00,-2,62,0,00,2,89,-2,62,0,00,2,89
3279,-0,20,0,39,-10,09,0,00,0,00,0,00,0,00,0,00,-2,23,0,00,2,45,-2,23,0,00,2,45
3296,-0,20,0,39,-10,09,0,00,0,00,0,00,0,00,0,00,-1,89,0,00,2,09,-1,89,0,00,2,09
3314,-0,29,0,00,-10,09,-0,09,-0,39,-27,30,0,00,-6,30,-5,70,0,00,0,83,-5,70,0,00,0,83
3332,-0,29,0,00,-9,90,-0,09,-0,39,-27,30,0,00,-6,30,-8,94,0,00,-0,24,-8,94,0,00,-0,24
3349,0,20,0,49,-9,90,0,40,0,10,7,00,0,00,28,00,-6,55,0,00,4,00,-6,55,0,00,4,00
3367,0,00,0,69,-9,70,0,20,0,30,21,00,0,00,14,00,-2,42,0,00,5,50,-2,42,0,00,5,50
3384,0,00,0,69,-9,70,0,20,0,30,21,00,0,00,14,00,1,09,0,00,6,77,1,09,0,00,6,77
3408,0,00,0,88,-10,19,0,20,0,49,34,30,0,00,14,00,6,07,0,00,7,86,6,07,0,00,7,86
3426,0,00,0,88,-10,19,0,20,0,49,34,30,0,00,14,00,10,31,0,00,8,78,10,31,0,00,8,78
3444,0,00,0,88,-10,19,0,20,0,49,34,30,0,00,14,00,13,91,0,00,9,56,13,91,0,00,9,56
3465,-0,29,1,76,-10,98,-0,09,1,37,95,90,0,00,-6,30,26,21,0,00,7,18,26,21,0,00,7,18
3485,-0,29,1,76,-10,49,-0,09,1,37,95,90,0,00,-6,30,36,66,0,00,5,16,36,66,0,00,5,16
3504,-0,49,1,18,-10,49,-0,29,0,79,55,30,0,00,-20,30,39,46,0,00,1,34,39,46,0,00,1,34
3520,1,86,0,88,-8,92,2,06,0,49,34,30,0,00,144,20,38,68,0,00,22,77,38,68,0,00,22,77
3536,1,86,0,88,-8,92,2,06,0,49,34,30,0,00,144,20,38,03,0,00,40,98,38,03,0,00,40,98
3552,1,86,-0,69,-8,82,2,06,-1,08,-75,60,0,00,144,20,20,98,0,00,56,47,20,98,0,00,56,47
3570,1,86,-0,69,-10,09,2,06,-1,08,-75,60,0,00,144,20,6,49,0,00,69,63,6,49,0,00,69,63
3590,0,29,0,39,-10,09,0,49,0,00,0,00,0,00,34,30,5,52,0,00,64,33,5,52,0,00,64,33
3607,0,59,0,98,-10,49,0,79,0,59,41,30,0,00,55,30,10,89,0,00,62,97,10,89,0,00,62,97
3625,0,59,0,98,-10,49,0,79,0,59,41,30,0,00,55,30,15,45,0,00,61,82,15,45,0,00,61,82
3642,-0,29,0,59,-10,39,-0,09,0,20,14,00,0,00,-6,30,15,23,0,00,51,60,15,23,0,00,51,60
3661,-0,29,0,59,-10,98,-0,09,0,20,14,00,0,00,-6,30,15,05,0,00,42,92,15,05,0,00,42,92
3679,-0,29,0,39,-10,98,-0,09,0,00,0,00,0,00,-6,30,12,79,0,00,35,54,12,79,0,00,35,54
3696,-0,29,0,29,-10,19,-0,09,-0,10,-7,00,0,00,-6,30,9,82,0,00,29,26,9,82,0,00,29,26
3714,0,00,0,29,-10,19,0,20,-0,10,-7,00,0,00,14,00,7,30,0,00,26,97,7,30,0,00,26,97
3732,0,00,0,39,-10,09,0,20,0,00,0,00,0,00,14,00,6,20,0,00,25,03,6,20,0,00,25,03
3750,0,00,0,39,-10,19,0,20,0,00,0,00,0,00,14,00,5,27,0,00,23,37,5,27,0,00,23,37
3767,0,00,0,29,-10,19,0,20,-0,10,-7,00,0,00,14,00,3,43,0,00,21,97,3,43,0,00,21,97
3784,0,00,0,39,-10,09,0,20,0,00,0,00,0,00,14,00,2,92,0,00,20,77,2,92,0,00,20,77
3801,0,00,0,39,-10,09,0,20,0,00,0,00,0,00,14,00,2,48,0,00,19,76,2,48,0,00,19,76
3819,-0,20,0,39,-10,09,0,00,0,00,0,00,0,00,0,00,2,11,0,00,16,79,2,11,0,00,16,79
3840,-0,20,0,39,-10,09,0,00,0,00,0,00,0,00,0,00,1,79,0,00,14,27,1,79,0,00,14,27
3856,-0,20,0,20,-10,09,0,00,-0,19,-13,30,0,00,0,00,-0,47,0,00,12,13,-0,47,0,00,12,13
3872,-0,20,0,20,-10,09,0,00,-0,19,-13,30,0,00,0,00,-2,40,0,00,10,31,-2,40,0,00,10,31
3888,-0,20,0,20,-10,09,0,00,-0,19,-13,30,0,00,0,00,-4,03,0,00,8,77,-4,03,0,00,8,77
3906,-0,20,0,49,-10,19,0,00,0,10,7,00,0,00,0,00,-2,38,0,00,7,45,-2,38,0,00,7,45
3924,0,20,0,49,-10,19,0,40,0,10,7,00,0,00,28,00,-0,97,0,00,10,53,-0,97,0,00,10,53
3942,0,00,0,29,-10,19,0,20,-0,10,-7,00,0,00,14,00,-1,87,0,00,11,05,-1,87,0,00,11,05
3960,0,00,0,29,-10,09,0,20,-0,10,-7,00,0,00,14,00,-2,64,0,00,11,50,-2,64,0,00,11,50
3978,0,00,0,39,-10,09,0,20,0,00,0,00,0,00,14,00,-2,25,0,00,11,87,-2,25,0,00,11,87
3996,0,00,0,39,-10,09,0,20,0,00,0,00,0,00,14,00,-1,91,0,00,12,19,-1,91,0,00,12,19
4013,-0,20,0,39,-10,09,0,00,0,00,0,00,0,00,0,00,-1,62,0,00,10,36,-1,62,0,00,10,36
4030,0,00,0,10,-10,00,0,20,-0,29,-20,30,0,00,14,00,-4,43,0,00,10,91,-4,43,0,00,10,91
4047,0,00,0,10,-10,00,0,20,-0,29,-20,30,0,00,14,00,-6,81,0,00,11,37,-6,81,0,00,11,37
4066,0,00,0,88,-10,39,0,20,0,49,34,30,0,00,14,00,-0,64,0,00,11,77,-0,64,0,00,11,77
4084,0,00,0,69,-10,49,0,20,0,30,21,00,0,00,14,00,2,61,0,00,12,10,2,61,0,00,12,10
4101,-0,29,0,69,-10,49,-0,09,0,30,21,00,0,00,-6,30,5,36,0,00,9,34,5,36,0,00,9,34
4118,-0,20,0,39,-10,29,0,00,0,00,0,00,0,00,0,00,4,56,0,00,7,94,4,56,0,00,7,94
4140,-0,20,0,39,-10,19,0,00,0,00,0,00,0,00,0,00,3,88,0,00,6,75,3,88,0,00,6,75
4159,-0,20,0,29,-10,19,0,00,-0,10,-7,00,0,00,0,00,2,24,0,00,5,74,2,24,0,00,5,74
4176,-0,20,0,29,-10,19,0,00,-0,10,-7,00,0,00,0,00,0,86,0,00,4,88,0,86,0,00,4,88
4194,-0,20,0,29,-10,19,0,00,-0,10,-7,00,0,00,0,00,-0,32,0,00,4,14,-0,32,0,00,4,14
4211,-0,20,0,49,-10,19,0,00,0,10,7,00,0,00,0,00,0,78,0,00,3,52,0,78,0,00,3,52
4230,-0,20,0,49,-10,00,0,00,0,10,7,00,0,00,0,00,1,71,0,00,2,99,1,71,0,00,2,99
4247,-0,20,0,59,-10,00,0,00,0,20,14,00,0,00,0,00,3,55,0,00,2,55,3,55,0,00,2,55
4265,-0,20,0,39,-10,09,0,00,0,00,0,00,0,00,0,00,3,02,0,00,2,16,3,02,0,00,2,16
4282,0,00,0,39,-10,09,0,20,0,00,0,00,0,00,14,00,2,57,0,00,3,94,2,57,0,00,3,94
4299,-0,20,0,39,-10,09,0,00,0,00,0,00,0,00,0,00,2,18,0,00,3,35,2,18,0,00,3,35
4316,-0,20,0,39,-10,09,0,00,0,00,0,00,0,00,0,00,1,86,0,00,2,85,1,86,0,00,2,85
4333,-0,20,0,39,-10,09,0,00,0,00,0,00,0,00,0,00,1,58,0,00,2,42,1,58,0,00,2,42
4353,-0,20,0,29,-10,19,0,00,-0,10,-7,00,0,00,0,00,0,29,0,00,2,06,0,29,0,00,2,06
4371,-0,20,0,29,-10,19,0,00,-0,10,-7,00,0,00,0,00,-0,80,0,00,1,75,-0,80,0,00,1,75
4390,-0,20,0,29,-10,19,0,00,-0,10,-7,00,0,00,0,00,-1,73,0,00,1,49,-1,73,0,00,1,49
4408,-0,20,0,29,-10,19,0,00,-0,10,-7,00,0,00,0,00,-2,52,0,00,1,26,-2,52,0,00,1,26
4426,-0,20,0,39,-10,29,0,00,0,00,0,00,0,00,0,00,-2,14,0,00,1,07,-2,14,0,00,1,07
4443,-0,20,0,39,-10,09,0,00,0,00,0,00,0,00,0,00,-1,82,0,00,0,91,-1,82,0,00,0,91
4460,-0,20,0,39,-10,09,0,00,0,00,0,00,0,00,0,00,-1,55,0,00,0,78,-1,55,0,00,0,78
4477,-0,20,0,39,-10,09,0,00,0,00,0,00,0,00,0,00,-1,32,0,00,0,66,-1,32,0,00,0,66
4500,-0,20,0,39,-10,19,0,00,0,00,0,00,0,00,0,00,-1,12,0,00,0,56,-1,12,0,00,0,56
4523,-0,20,0,29,-10,19,0,00,-0,10,-7,00,0,00,0,00,-2,00,0,00,0,48,-2,00,0,00,0,48
4556,-0,20,0,39,-10,09,0,00,0,00,0,00,0,00,0,00,-1,70,0,00,0,40,-1,70,0,00,0,40
4575,-0,20,0,49,-10,19,0,00,0,10,7,00,0,00,0,00,-0,40,0,00,0,34,-0,40,0,00,0,34
4594,-0,20,0,49,-10,19,0,00,0,10,7,00,0,00,0,00,0,71,0,00,0,29,0,71,0,00,0,29
4613,-0,20,0,49,-10,19,0,00,0,10,7,00,0,00,0,00,1,66,0,00,0,25,1,66,0,00,0,25
4632,0,00,0,39,-10,09,0,20,0,00,0,00,0,00,14,00,1,41,0,00,2,31,1,41,0,00,2,31
4651,0,00,0,39,-10,19,0,20,0,00,0,00,0,00,14,00,1,20,0,00,4,06,1,20,0,00,4,06
4670,-0,20,0,29,-10,19,0,00,-0,10,-7,00,0,00,0,00,-0,03,0,00,3,45,-0,03,0,00,3,45
4696,-0,20,0,39,-10,09,0,00,0,00,0,00,0,00,0,00,0,00,0,00,2,94,0,00,0,00,2,94
4718,-0,20,0,29,-10,19,0,00,-0,10,-7,00,0,00,0,00,-1,05,0,00,2,50,-1,05,0,00,2,50
4739,-0,20,0,29,-10,19,0,00,-0,10,-7,00,0,00,0,00,-1,94,0,00,2,12,-1,94,0,00,2,12
4759,-0,20,0,29,-10,19,0,00,-0,10,-7,00,0,00,0,00,-2,70,0,00,1,80,-2,70,0,00,1,80
4778,-0,20,0,39,-10,09,0,00,0,00,0,00,0,00,0,00,-2,30,0,00,1,53,-2,30,0,00,1,53
4797,0,00,0,39,-10,19,0,20,0,00,0,00,0,00,14,00,-1,95,0,00,3,40,-1,95,0,00,3,40
4815,-0,20,0,29,-10,19,0,00,-0,10,-7,00,0,00,0,00,-2,71,0,00,2,89,-2,71,0,00,2,89
4832,-0,20,0,29,-10,19,0,00,-0,10,-7,00,0,00,0,00,-3,35,0,00,2,46,-3,35,0,00,2,46
4849,-0,20,0,29,-10,19,0,00,-0,10,-7,00,0,00,0,00,-3,90,0,00,2,09,-3,90,0,00,2,09
4867,-0,20,0,29,-10,19,0,00,-0,10,-7,00,0,00,0,00,-4,36,0,00,1,78,-4,36,0,00,1,78
4884,-0,20,0,29,-10,19,0,00,-0,10,-7,00,0,00,0,00,-4,76,0,00,1,51,-4,76,0,00,1,51
4904,-0,20,0,29,-10,19,0,00,-0,10,-7,00,0,00,0,00,-5,10,0,00,1,28,-5,10,0,00,1,28
4924,-0,20,0,29,-10,19,0,00,-0,10,-7,00,0,00,0,00,-5,38,0,00,1,09,-5,38,0,00,1,09
4941,-0,20,0,29,-10,19,0,00,-0,10,-7,00,0,00,0,00,-5,62,0,00,0,93,-5,62,0,00,0,93
4961,0,00,0,39,-10,09,0,20,0,00,0,00,0,00,14,00,-4,78,0,00,2,89,-4,78,0,00,2,89
4980,0,00,0,39,-10,09,0,20,0,00,0,00,0,00,14,00,-4,06,0,00,4,55,-4,06,0,00,4,55
4997,-0,20,0,39,-10,09,0,00,0,00,0,00,0,00,0,00,-3,45,0,00,3,87,-3,45,0,00,3,87
5015,-0,20,0,29,-10,19,0,00,-0,10,-7,00,0,00,0,00,-3,99,0,00,3,29,-3,99,0,00,3,29
5034,-0,20,0,29,-10,19,0,00,-0,10,-7,00,0,00,0,00,-4,44,0,00,2,80,-4,44,0,00,2,80
5053,-0,20,1,08,-10,39,0,00,0,69,48,30,0,00,0,00,3,47,0,00,2,38,3,47,0,00,2,38
5074,-0,20,0,29,-9,70,0,00,-0,10,-7,00,0,00,0,00,1,90,0,00,2,02,1,90,0,00,2,02
5092,0,20,0,29,-9,70,0,40,-0,10,-7,00,0,00,28,00,0,57,0,00,5,92,0,57,0,00,5,92
5112,0,88,-0,10,-10,00,1,08,-0,49,-34,30,0,00,75,60,-4,66,0,00,16,37,-4,66,0,00,16,37
5133,0,88,-0,10,-10,19,1,08,-0,49,-34,30,0,00,75,60,-9,11,0,00,25,25,-9,11,0,00,25,25
5151,0,20,0,29,-10,19,0,40,-0,10,-7,00,0,00,28,00,-8,79,0,00,25,67,-8,79,0,00,25,67
5173,0,20,0,29,-10,19,0,40,-0,10,-7,00,0,00,28,00,-8,52,0,00,26,02,-8,52,0,00,26,02
5191,0,20,0,29,-10,19,0,40,-0,10,-7,00,0,00,28,00,-8,30,0,00,26,31,-8,30,0,00,26,31
5210,-0,29,0,39,-10,09,-0,09,0,00,0,00,0,00,-6,30,-7,05,0,00,21,42,-7,05,0,00,21,42
5228,-0,29,0,39,-10,09,-0,09,0,00,0,00,0,00,-6,30,-5,99,0,00,17,26,-5,99,0,00,17,26
5247,-0,20,0,39,-10,19,0,00,0,00,0,00,0,00,0,00,-5,09,0,00,14,67,-5,09,0,00,14,67
5265,0,00,0,29,-10,19,0,20,-0,10,-7,00,0,00,14,00,-5,38,0,00,14,57,-5,38,0,00,14,57
5282,0,00,0,39,-10,29,0,20,0,00,0,00,0,00,14,00,-4,57,0,00,14,49,-4,57,0,00,14,49
5301,-0,20,0,39,-10,29,0,00,0,00,0,00,0,00,0,00,-3,89,0,00,12,31,-3,89,0,00,12,31
5318,-0,59,0,49,-10,19,-0,39,0,10,7,00,0,00,-27,30,-2,25,0,00,6,37,-2,25,0,00,6,37
5340,-0,59,0,49,-10,09,-0,39,0,10,7,00,0,00,-27,30,-0,87,0,00,1,32,-0,87,0,00,1,32
5358,-0,20,0,39,-10,09,0,00,0,00,0,00,0,00,0,00,-0,74,0,00,1,12,-0,74,0,00,1,12
5378,-0,20,0,10,-10,19,0,00,-0,29,-20,30,0,00,0,00,-3,67,0,00,0,95,-3,67,0,00,0,95
5395,-0,29,0,10,-10,19,-0,09,-0,29,-20,30,0,00,-6,30,-6,17,0,00,-0,13,-6,17,0,00,-0,13
5414,0,20,0,59,-10,00,0,40,0,20,14,00,0,00,28,00,-3,14,0,00,4,09,-3,14,0,00,4,09
5433,0,20,0,59,-10,19,0,40,0,20,14,00,0,00,28,00,-0,57,0,00,7,67,-0,57,0,00,7,67
5450,0,20,0,49,-10,19,0,40,0,10,7,00,0,00,28,00,0,57,0,00,10,72,0,57,0,00,10,72
5467,0,20,0,20,-10,09,0,40,-0,19,-13,30,0,00,28,00,-1,51,0,00,13,31,-1,51,0,00,13,31
5484,-0,29,0,20,-10,09,-0,09,-0,19,-13,30,0,00,-6,30,-3,28,0,00,10,37,-3,28,0,00,10,37
5502,-0,20,0,29,-10,19,0,00,-0,10,-7,00,0,00,0,00,-3,84,0,00,8,82,-3,84,0,00,8,82
5524,-0,20,0,39,-10,09,0,00,0,00,0,00,0,00,0,00,-3,26,0,00,7,49,-3,26,0,00,7,49
5540,-0,20,0,39,-10,09,0,00,0,00,0,00,0,00,0,00,-2,77,0,00,6,37,-2,77,0,00,6,37
5558,-0,20,0,39,-10,09,0,00,0,00,0,00,0,00,0,00,-2,36,0,00,5,41,-2,36,0,00,5,41
5579,-0,20,0,39,-10,09,0,00,0,00,0,00,0,00,0,00,-2,00,0,00,4,60,-2,00,0,00,4,60
5599,-0,20,0,39,-10,09,0,00,0,00,0,00,0,00,0,00,-1,70,0,00,3,91,-1,70,0,00,3,91
5617,-0,20,0,29,-10,19,0,00,-0,10,-7,00,0,00,0,00,-2,50,0,00,3,33,-2,50,0,00,3,33
5637,-0,20,0,29,-10,19,0,00,-0,10,-7,00,0,00,0,00,-3,17,0,00,2,83,-3,17,0,00,2,83
5654,0,00,0,39,-10,09,0,20,0,00,0,00,0,00,14,00,-2,70,0,00,4,50,-2,70,0,00,4,50
5673,0,00,0,69,-10,09,0,20,0,30,21,00,0,00,14,00,0,86,0,00,5,93,0,86,0,00,5,93
5691,0,00,0,69,-10,09,0,20,0,30,21,00,0,00,14,00,3,88,0,00,7,14,3,88,0,00,7,14
5708,0,00,0,20,-10,09,0,20,-0,19,-13,30,0,00,14,00,1,30,0,00,8,17,1,30,0,00,8,17
5728,0,00,0,20,-10,09,0,20,-0,19,-13,30,0,00,14,00,-0,89,0,00,9,04,-0,89,0,00,9,04
5746,0,00,0,39,-10,09,0,20,0,00,0,00,0,00,14,00,-0,76,0,00,9,79,-0,76,0,00,9,79
5762,0,00,0,39,-10,29,0,20,0,00,0,00,0,00,14,00,-0,64,0,00,10,42,-0,64,0,00,10,42
5779,0,00,0,39,-10,29,0,20,0,00,0,00,0,00,14,00,-0,55,0,00,10,96,-0,55,0,00,10,96
5798,0,00,0,20,-9,90,0,20,-0,19,-13,30,0,00,14,00,-2,46,0,00,11,41,-2,46,0,00,11,41
5815,-0,20,0,20,-9,90,0,00,-0,19,-13,30,0,00,0,00,-4,08,0,00,9,70,-4,08,0,00,9,70
5832,-0,20,0,39,-10,09,0,00,0,00,0,00,0,00,0,00,-3,47,0,00,8,25,-3,47,0,00,8,25
5849,-0,20,0,39,-10,09,0,00,0,00,0,00,0,00,0,00,-2,95,0,00,7,01,-2,95,0,00,7,01
5867,-0,20,0,39,-10,09,0,00,0,00,0,00,0,00,0,00,-2,51,0,00,5,96,-2,51,0,00,5,96
5889,-0,20,0,39,-10,09,0,00,0,00,0,00,0,00,0,00,-2,13,0,00,5,06,-2,13,0,00,5,06
5908,-0,20,0,39,-10,09,0,00,0,00,0,00,0,00,0,00,-1,81,0,00,4,30,-1,81,0,00,4,30
5925,-0,20,0,39,-10,09,0,00,0,00,0,00,0,00,0,00,-1,54,0,00,3,66,-1,54,0,00,3,66
5941,-0,20,0,39,-10,09,0,00,0,00,0,00,0,00,0,00,-1,31,0,00,3,11,-1,31,0,00,3,11
5957,-0,20,0,39,-10,09,0,00,0,00,0,00,0,00,0,00,-1,11,0,00,2,64,-1,11,0,00,2,64
5973,-0,20,0,39,-10,19,0,00,0,00,0,00,0,00,0,00,-0,95,0,00,2,25,-0,95,0,00,2,25
5990,0,00,0,29,-10,19,0,20,-0,10,-7,00,0,00,14,00,-1,85,0,00,4,01,-1,85,0,00,4,01
6008,0,00,0,29,-10,19,0,20,-0,10,-7,00,0,00,14,00,-2,63,0,00,5,51,-2,63,0,00,5,51
6025,0,00,0,29,-10,19,0,20,-0,10,-7,00,0,00,14,00,-3,28,0,00,6,78,-3,28,0,00,6,78
6042,-0,20,0,29,-10,19,0,00,-0,10,-7,00,0,00,0,00,-3,84,0,00,5,76,-3,84,0,00,5,76
6059,-0,20,0,29,-10,09,0,00,-0,10,-7,00,0,00,0,00,-4,31,0,00,4,90,-4,31,0,00,4,90
6075,-0,20,0,39,-10,09,0,00,0,00,0,00,0,00,0,00,-3,67,0,00,4,17,-3,67,0,00,4,17
6091,-0,20,0,39,-10,09,0,00,0,00,0,00,0,00,0,00,-3,12,0,00,3,54,-3,12,0,00,3,54
6107,-0,20,0,39,-10,09,0,00,0,00,0,00,0,00,0,00,-2,65,0,00,3,01,-2,65,0,00,3,01
6124,-0,20,0,29,-10,19,0,00,-0,10,-7,00,0,00,0,00,-3,30,0,00,2,56,-3,30,0,00,2,56
6140,-0,20,0,29,-10,19,0,00,-0,10,-7,00,0,00,0,00,-3,86,0,00,2,17,-3,86,0,00,2,17
6156,-0,20,0,39,-10,09,0,00,0,00,0,00,0,00,0,00,-3,28,0,00,1,85,-3,28,0,00,1,85
6173,-0,20,0,39,-10,09,0,00,0,00,0,00,0,00,0,00,-2,79,0,00,1,57,-2,79,0,00,1,57
6190,-0,20,0,29,-10,19,0,00,-0,10,-7,00,0,00,0,00,-3,42,0,00,1,34,-3,42,0,00,1,34
6209,-0,20,0,29,-10,09,0,00,-0,10,-7,00,0,00,0,00,-3,96,0,00,1,13,-3,96,0,00,1,13
6225,-0,20,0,39,-10,09,0,00,0,00,0,00,0,00,0,00,-3,36,0,00,0,96,-3,36,0,00,0,96
6242,-0,20,0,39,-10,19,0,00,0,00,0,00,0,00,0,00,-2,86,0,00,0,82,-2,86,0,00,0,82
6259,0,00,0,29,-10,19,0,20,-0,10,-7,00,0,00,14,00,-3,48,0,00,2,80,-3,48,0,00,2,80
6275,0,00,0,39,-10,09,0,20,0,00,0,00,0,00,14,00,-2,96,0,00,4,48,-2,96,0,00,4,48
6292,-0,20,0,39,-10,09,0,00,0,00,0,00,0,00,0,00,-2,51,0,00,3,81,-2,51,0,00,3,81
6310,-0,20,0,29,-10,19,0,00,-0,10,-7,00,0,00,0,00,-3,19,0,00,3,23,-3,19,0,00,3,23
6327,-0,20,0,29,-10,19,0,00,-0,10,-7,00,0,00,0,00,-3,76,0,00,2,75,-3,76,0,00,2,75
6344,-0,20,0,39,-10,09,0,00,0,00,0,00,0,00,0,00,-3,19,0,00,2,34,-3,19,0,00,2,34
6360,-0,20,0,39,-10,19,0,00,0,00,0,00,0,00,0,00,-2,72,0,00,1,99,-2,72,0,00,1,99
6376,-0,20,0,49,-10,19,0,00,0,10,7,00,0,00,0,00,-1,26,0,00,1,69,-1,26,0,00,1,69
6392,-0,20,0,49,-10,09,0,00,0,10,7,00,0,00,0,00,-0,02,0,00,1,44,-0,02,0,00,1,44
6409,-0,20,0,39,-10,09,0,00,0,00,0,00,0,00,0,00,0,00,0,00,1,22,0,00,0,00,1,22
6425,-0,20,0,39,-10,09,0,00,0,00,0,00,0,00,0,00,0,00,0,00,1,04,0,00,0,00,1,04
6442,-0,20,0,39,-10,09,0,00,0,00,0,00,0,00,0,00,0,00,0,00,0,88,0,00,0,00,0,88
6459,-0,20,0,39,-10,09,0,00,0,00,0,00,0,00,0,00,0,00,0,00,0,75,0,00,0,00,0,75
6475,-0,20,0,39,-10,09,0,00,0,00,0,00,0,00,0,00,0,00,0,00,0,64,0,00,0,00,0,64
6492,-0,20,0,49,-10,19,0,00,0,10,7,00,0,00,0,00,1,05,0,00,0,54,1,05,0,00,0,54
6509,-0,20,0,49,-10,09,0,00,0,10,7,00,0,00,0,00,1,94,0,00,0,46,1,94,0,00,0,46
6526,-0,29,0,39,-10,09,-0,09,0,00,0,00,0,00,-6,30,1,65,0,00,-0,55,1,65,0,00,-0,55
6543,-0,29,0,69,-10,09,-0,09,0,30,21,00,0,00,-6,30,4,55,0,00,-1,42,4,55,0,00,-1,42
6559,-0,20,0,69,-10,09,0,00,0,30,21,00,0,00,0,00,7,02,0,00,-1,20,7,02,0,00,-1,20
6575,-0,20,0,49,-10,19,0,00,0,10,7,00,0,00,0,00,7,00,0,00,-1,02,7,00,0,00,-1,02
6592,-0,20,0,49,-10,19,0,00,0,10,7,00,0,00,0,00,7,00,0,00,-0,87,7,00,0,00,-0,87
6608,-0,20,0,59,-10,00,0,00,0,20,14,00,0,00,0,00,8,05,0,00,-0,74,8,05,0,00,-0,74
6624,-0,20,0,59,-10,00,0,00,0,20,14,00,0,00,0,00,8,94,0,00,-0,63,8,94,0,00,-0,63
6640,-0,20,0,59,-10,00,0,00,0,20,14,00,0,00,0,00,9,70,0,00,-0,53,9,70,0,00,-0,53
6656,-0,29,0,59,-10,00,-0,09,0,20,14,00,0,00,-6,30,10,35,0,00,-1,40,10,35,0,00,-1,40
6672,-0,20,0,39,-10,09,0,00,0,00,0,00,0,00,0,00,8,79,0,00,-1,19,8,79,0,00,-1,19
6688,-0,20,0,39,-10,09,0,00,0,00,0,00,0,00,0,00,7,47,0,00,-1,01,7,47,0,00,-1,01
6705,-0,20,0,39,-10,09,0,00,0,00,0,00,0,00,0,00,6,35,0,00,-0,86,6,35,0,00,-0,86
6723,-0,20,0,59,-10,00,0,00,0,20,14,00,0,00,0,00,7,50,0,00,-0,73,7,50,0,00,-0,73
6741,-0,29,0,59,-10,00,-0,09,0,20,14,00,0,00,-6,30,8,48,0,00,-1,57,8,48,0,00,-1,57
6757,-0,29,0,69,-10,09,-0,09,0,30,21,00,0,00,-6,30,10,35,0,00,-2,28,10,35,0,00,-2,28
6773,-0,29,0,69,-10,09,-0,09,0,30,21,00,0,00,-6,30,11,95,0,00,-2,88,11,95,0,00,-2,88
6790,-0,29,0,78,-10,29,-0,09,0,39,27,30,0,00,-6,30,14,25,0,00,-3,39,14,25,0,00,-3,39
6808,-0,29,0,78,-10,29,-0,09,0,39,27,30,0,00,-6,30,16,21,0,00,-3,83,16,21,0,00,-3,83
6826,-0,29,0,69,-10,09,-0,09,0,30,21,00,0,00,-6,30,16,93,0,00,-4,20,16,93,0,00,-4,20
6847,-0,29,0,69,-10,09,-0,09,0,30,21,00,0,00,-6,30,17,54,0,00,-4,51,17,54,0,00,-4,51
6867,-0,29,0,69,-10,09,-0,09,0,30,21,00,0,00,-6,30,18,06,0,00,-4,78,18,06,0,00,-4,78
6889,-0,29,0,69,-10,09,-0,09,0,30,21,00,0,00,-6,30,18,50,0,00,-5,01,18,50,0,00,-5,01
6905,-0,29,0,69,-10,09,-0,09,0,30,21,00,0,00,-6,30,18,87,0,00,-5,20,18,87,0,00,-5,20
6924,-0,29,0,69,-10,09,-0,09,0,30,21,00,0,00,-6,30,19,19,0,00,-5,37,19,19,0,00,-5,37
6943,-0,29,0,69,-10,09,-0,09,0,30,21,00,0,00,-6,30,19,46,0,00,-5,51,19,46,0,00,-5,51
6959,-0,29,0,69,-10,29,-0,09,0,30,21,00,0,00,-6,30,19,69,0,00,-5,63,19,69,0,00,-5,63
6976,-0,29,0,78,-10,29,-0,09,0,39,27,30,0,00,-6,30,20,84,0,00,-5,73,20,84,0,00,-5,73
6992,-0,29,0,78,-10,09,-0,09,0,39,27,30,0,00,-6,30,21,81,0,00,-5,81,21,81,0,00,-5,81
7008,-0,29,0,69,-10,09,-0,09,0,30,21,00,0,00,-6,30,21,68,0,00,-5,89,21,68,0,00,-5,89
7024,-0,29,0,69,-10,09,-0,09,0,30,21,00,0,00,-6,30,21,58,0,00,-5,95,21,58,0,00,-5,95
7041,-0,29,0,69,-10,09,-0,09,0,30,21,00,0,00,-6,30,21,49,0,00,-6,00,21,49,0,00,-6,00
7057,-0,29,0,69,-10,09,-0,09,0,30,21,00,0,00,-6,30,21,42,0,00,-6,05,21,42,0,00,-6,05
7073,-0,29,0,69,-10,09,-0,09,0,30,21,00,0,00,-6,30,21,36,0,00,-6,08,21,36,0,00,-6,08
7092,-0,49,0,78,-10,00,-0,29,0,39,27,30,0,00,-20,30,22,25,0,00,-8,22,22,25,0,00,-8,22
7109,-0,49,0,78,-10,00,-0,29,0,39,27,30,0,00,-20,30,23,01,0,00,-10,03,23,01,0,00,-10,03
7126,-0,49,0,59,-10,00,-0,29,0,20,14,00,0,00,-20,30,21,66,0,00,-11,57,21,66,0,00,-11,57
7143,-0,49,0,88,-10,19,-0,29,0,49,34,30,0,00,-20,30,23,55,0,00,-12,88,23,55,0,00,-12,88
7159,-0,49,0,88,-10,19,-0,29,0,49,34,30,0,00,-20,30,25,16,0,00,-13,99,25,16,0,00,-13,99
7176,-0,49,0,78,-10,29,-0,29,0,39,27,30,0,00,-20,30,25,48,0,00,-14,94,25,48,0,00,-14,94
7192,-0,29,0,78,-10,29,-0,09,0,39,27,30,0,00,-6,30,25,76,0,00,-13,64,25,76,0,00,-13,64
7208,-0,29,0,88,-10,19,-0,09,0,49,34,30,0,00,-6,30,27,04,0,00,-12,54,27,04,0,00,-12,54
7224,-0,29,0,88,-10,19,-0,09,0,49,34,30,0,00,-6,30,28,13,0,00,-11,61,28,13,0,00,-11,61
7241,-0,59,0,88,-10,39,-0,39,0,49,34,30,0,00,-27,30,29,05,0,00,-13,96,29,05,0,00,-13,96
7258,-0,59,0,88,-10,39,-0,39,0,49,34,30,0,00,-27,30,29,84,0,00,-15,96,29,84,0,00,-15,96
7274,-0,49,0,88,-10,19,-0,29,0,49,34,30,0,00,-20,30,30,51,0,00,-16,61,30,51,0,00,-16,61
7290,-0,49,0,88,-10,19,-0,29,0,49,34,30,0,00,-20,30,31,08,0,00,-17,16,31,08,0,00,-17,16
7306,-0,49,0,88,-10,19,-0,29,0,49,34,30,0,00,-20,30,31,56,0,00,-17,63,31,56,0,00,-17,63
7323,-0,49,0,78,-10,00,-0,29,0,39,27,30,0,00,-20,30,30,92,0,00,-18,03,30,92,0,00,-18,03
7342,-0,49,0,78,-10,00,-0,29,0,39,27,30,0,00,-20,30,30,38,0,00,-18,37,30,38,0,00,-18,37
7358,-0,49,0,69,-10,09,-0,29,0,30,21,00,0,00,-20,30,28,97,0,00,-18,66,28,97,0,00,-18,66
7374,-0,49,0,69,-10,09,-0,29,0,30,21,00,0,00,-20,30,27,78,0,00,-18,91,27,78,0,00,-18,91
7391,-0,29,0,69,-10,09,-0,09,0,30,21,00,0,00,-6,30,26,76,0,00,-17,02,26,76,0,00,-17,02
7408,-0,29,0,69,-10,09,-0,09,0,30,21,00,0,00,-6,30,25,90,0,00,-15,41,25,90,0,00,-15,41
7425,-0,29,0,69,-10,09,-0,09,0,30,21,00,0,00,-6,30,25,16,0,00,-14,04,25,16,0,00,-14,04
7442,-0,29,0,69,-10,09,-0,09,0,30,21,00,0,00,-6,30,24,54,0,00,-12,88,24,54,0,00,-12,88
7458,-0,29,0,69,-10,09,-0,09,0,30,21,00,0,00,-6,30,24,01,0,00,-11,89,24,01,0,00,-11,89
7475,-0,29,0,69,-10,09,-0,09,0,30,21,00,0,00,-6,30,23,56,0,00,-11,06,23,56,0,00,-11,06
7492,-0,29,0,69,-10,09,-0,09,0,30,21,00,0,00,-6,30,23,17,0,00,-10,34,23,17,0,00,-10,34
7509,-0,29,0,69,-10,09,-0,09,0,30,21,00,0,00,-6,30,22,85,0,00,-9,74,22,85,0,00,-9,74
7525,-0,29,0,69,-10,09,-0,09,0,30,21,00,0,00,-6,30,22,57,0,00,-9,22,22,57,0,00,-9,22
7542,-0,29,0,49,-10,19,-0,09,0,10,7,00,0,00,-6,30,20,23,0,00,-8,78,20,23,0,00,-8,78
7558,-0,29,0,49,-10,19,-0,09,0,10,7,00,0,00,-6,30,18,25,0,00,-8,41,18,25,0,00,-8,41
7575,0,00,0,59,-10,00,0,20,0,20,14,00,0,00,14,00,17,61,0,00,-5,05,17,61,0,00,-5,05
7591,0,00,0,59,-10,09,0,20,0,20,14,00,0,00,14,00,17,07,0,00,-2,19,17,07,0,00,-2,19
7608,-0,20,0,39,-10,09,0,00,0,00,0,00,0,00,0,00,14,51,0,00,-1,86,14,51,0,00,-1,86
7624,-0,20,0,39,-10,29,0,00,0,00,0,00,0,00,0,00,12,33,0,00,-1,58,12,33,0,00,-1,58
7641,0,00,0,39,-10,29,0,20,0,00,0,00,0,00,14,00,10,48,0,00,0,75,10,48,0,00,0,75
7657,0,00,1,37,-10,98,0,20,0,98,68,60,0,00,14,00,19,20,0,00,2,74,19,20,0,00,2,74
7674,-0,20,1,37,-10,98,0,00,0,98,68,60,0,00,0,00,26,61,0,00,2,33,26,61,0,00,2,33
7690,-0,20,0,49,-10,19,0,00,0,10,7,00,0,00,0,00,23,67,0,00,1,98,23,67,0,00,1,98
7706,-0,20,0,49,-10,19,0,00,0,10,7,00,0,00,0,00,21,17,0,00,1,68,21,17,0,00,1,68
7723,-0,20,0,49,-10,19,0,00,0,10,7,00,0,00,0,00,19,04,0,00,1,43,19,04,0,00,1,43
7740,-0,20,0,49,-10,19,0,00,0,10,7,00,0,00,0,00,17,24,0,00,1,22,17,24,0,00,1,22
7757,-0,20,0,29,-10,19,0,00,-0,10,-7,00,0,00,0,00,13,60,0,00,1,03,13,60,0,00,1,03
7780,-0,20,0,39,-10,09,0,00,0,00,0,00,0,00,0,00,11,56,0,00,0,88,11,56,0,00,0,88
7797,-0,29,0,39,-10,09,-0,09,0,00,0,00,0,00,-6,30,9,83,0,00,-0,20,9,83,0,00,-0,20
7816,0,00,0,39,-10,09,0,20,0,00,0,00,0,00,14,00,8,35,0,00,1,93,8,35,0,00,1,93
7832,0,00,0,39,-10,09,0,20,0,00,0,00,0,00,14,00,7,10,0,00,3,74,7,10,0,00,3,74
7849,0,00,0,39,-10,09,0,20,0,00,0,00,0,00,14,00,6,03,0,00,5,28,6,03,0,00,5,28
7865,0,00,0,39,-10,09,0,20,0,00,0,00,0,00,14,00,5,13,0,00,6,59,5,13,0,00,6,59
7881,-0,20,0,39,-10,09,0,00,0,00,0,00,0,00,0,00,4,36,0,00,5,60,4,36,0,00,5,60
7898,-0,20,0,39,-10,09,0,00,0,00,0,00,0,00,0,00,3,71,0,00,4,76,3,71,0,00,4,76
7917,-0,20,0,39,-10,09,0,00,0,00,0,00,0,00,0,00,3,15,0,00,4,05,3,15,0,00,4,05
7934,0,00,0,29,-10,19,0,20,-0,10,-7,00,0,00,14,00,1,63,0,00,5,54,1,63,0,00,5,54
7952,0,00,0,39,-10,09,0,20,0,00,0,00,0,00,14,00,1,38,0,00,6,81,1,38,0,00,6,81
7968,0,20,0,39,-10,09,0,40,0,00,0,00,0,00,28,00,1,18,0,00,9,99,1,18,0,00,9,99
7985,0,20,0,69,-10,09,0,40,0,30,21,00,0,00,28,00,4,15,0,00,12,69,4,15,0,00,12,69
8008,0,49,0,69,-10,09,0,69,0,30,21,00,0,00,48,30,6,68,0,00,18,03,6,68,0,00,18,03
8025,0,00,0,39,-10,09,0,20,0,00,0,00,0,00,14,00,5,68,0,00,17,43,5,68,0,00,17,43
8042,0,00,0,39,-10,19,0,20,0,00,0,00,0,00,14,00,4,82,0,00,16,91,4,82,0,00,16,91
8058,-0,20,0,29,-10,19,0,00,-0,10,-7,00,0,00,0,00,3,05,0,00,14,38,3,05,0,00,14,38
8074,-0,20,0,49,-9,90,0,00,0,10,7,00,0,00,0,00,3,64,0,00,12,22,3,64,0,00,12,22
8091,0,29,0,49,-9,90,0,49,0,10,7,00,0,00,34,30,4,15,0,00,15,53,4,15,0,00,15,53
8108,0,20,0,29,-10,19,0,40,-0,10,-7,00,0,00,28,00,2,47,0,00,17,40,2,47,0,00,17,40
8124,0,20,0,29,-10,19,0,40,-0,10,-7,00,0,00,28,00,1,05,0,00,18,99,1,05,0,00,18,99
8140,0,20,0,29,-10,19,0,40,-0,10,-7,00,0,00,28,00,-0,15,0,00,20,34,-0,15,0,00,20,34
8162,0,20,0,29,-10,09,0,40,-0,10,-7,00,0,00,28,00,-1,18,0,00,21,49,-1,18,0,00,21,49
8178,0,00,0,39,-10,09,0,20,0,00,0,00,0,00,14,00,-1,00,0,00,20,37,-1,00,0,00,20,37
8197,0,00,0,39,-10,09,0,20,0,00,0,00,0,00,14,00,-0,85,0,00,19,41,-0,85,0,00,19,41
8215,0,00,0,39,-10,09,0,20,0,00,0,00,0,00,14,00,-0,73,0,00,18,60,-0,73,0,00,18,60
8231,0,20,0,59,-10,00,0,40,0,20,14,00,0,00,28,00,1,48,0,00,20,01,1,48,0,00,20,01
8250,0,20,0,59,-10,09,0,40,0,20,14,00,0,00,28,00,3,36,0,00,21,21,3,36,0,00,21,21
8266,-0,29,0,20,-10,09,-0,09,-0,19,-13,30,0,00,-6,30,0,86,0,00,17,08,0,86,0,00,17,08
8284,-0,29,0,10,-10,19,-0,09,-0,29,-20,30,0,00,-6,30,-2,31,0,00,13,58,-2,31,0,00,13,58
8300,-0,49,0,10,-10,19,-0,29,-0,29,-20,30,0,00,-20,30,-5,01,0,00,8,49,-5,01,0,00,8,49
8317,-0,49,0,29,-10,19,-0,29,-0,10,-7,00,0,00,-20,30,-5,31,0,00,4,17,-5,31,0,00,4,17
8333,0,00,0,29,-10,19,0,20,-0,10,-7,00,0,00,14,00,-5,56,0,00,5,65,-5,56,0,00,5,65
8351,0,00,0,29,-10,19,0,20,-0,10,-7,00,0,00,14,00,-5,78,0,00,6,90,-5,78,0,00,6,90
8367,-0,20,0,29,-10,09,0,00,-0,10,-7,00,0,00,0,00,-5,96,0,00,5,87,-5,96,0,00,5,87
8383,-0,20,0,39,-10,09,0,00,0,00,0,00,0,00,0,00,-5,07,0,00,4,99,-5,07,0,00,4,99
8399,-0,20,0,39,-10,19,0,00,0,00,0,00,0,00,0,00,-4,31,0,00,4,24,-4,31,0,00,4,24
8415,-0,20,0,29,-10,19,0,00,-0,10,-7,00,0,00,0,00,-4,71,0,00,3,60,-4,71,0,00,3,60
8433,-0,20,0,29,-10,00,0,00,-0,10,-7,00,0,00,0,00,-5,05,0,00,3,06,-5,05,0,00,3,06
8456,0,29,0,78,-10,00,0,49,0,39,27,30,0,00,34,30,-0,20,0,00,7,75,-0,20,0,00,7,75
8477,0,20,0,39,-10,09,0,40,0,00,0,00,0,00,28,00,-0,17,0,00,10,79,-0,17,0,00,10,79
8500,0,20,0,10,-10,19,0,40,-0,29,-20,30,0,00,28,00,-3,19,0,00,13,37,-3,19,0,00,13,37
8526,-0,29,0,10,-10,09,-0,09,-0,29,-20,30,0,00,-6,30,-5,76,0,00,10,42,-5,76,0,00,10,42
8552,-0,20,0,39,-10,09,0,00,0,00,0,00,0,00,0,00,-4,89,0,00,8,85,-4,89,0,00,8,85
8576,-0,20,0,39,-10,09,0,00,0,00,0,00,0,00,0,00,-4,16,0,00,7,53,-4,16,0,00,7,53
8598,0,00,0,49,-10,19,0,20,0,10,7,00,0,00,14,00,-2,49,0,00,8,50,-2,49,0,00,8,50
8621,-0,20,0,20,-10,09,0,00,-0,19,-13,30,0,00,0,00,-4,11,0,00,7,22,-4,11,0,00,7,22
8644,-0,20,0,20,-10,29,0,00,-0,19,-13,30,0,00,0,00,-5,49,0,00,6,14,-5,49,0,00,6,14
8671,0,00,0,20,-10,09,0,20,-0,19,-13,30,0,00,14,00,-6,66,0,00,7,32,-6,66,0,00,7,32
8695,-0,20,0,39,-10,09,0,00,0,00,0,00,0,00,0,00,-5,66,0,00,6,22,-5,66,0,00,6,22
8714,-0,29,0,39,-10,78,-0,09,0,00,0,00,0,00,-6,30,-4,81,0,00,4,34,-4,81,0,00,4,34
8731,-0,29,0,39,-10,09,-0,09,0,00,0,00,0,00,-6,30,-4,09,0,00,2,75,-4,09,0,00,2,75
8748,-0,20,0,20,-10,09,0,00,-0,19,-13,30,0,00,0,00,-5,47,0,00,2,33,-5,47,0,00,2,33
8764,-0,20,0,20,-10,29,0,00,-0,19,-13,30,0,00,0,00,-6,65,0,00,1,98,-6,65,0,00,1,98
8780,-0,20,0,39,-10,29,0,00,0,00,0,00,0,00,0,00,-5,65,0,00,1,69,-5,65,0,00,1,69
8797,-0,20,0,59,-10,39,0,00,0,20,14,00,0,00,0,00,-2,70,0,00,1,43,-2,70,0,00,1,43
8813,-0,59,0,59,-10,39,-0,39,0,20,14,00,0,00,-27,30,-0,20,0,00,-2,88,-0,20,0,00,-2,88
8830,0,49,0,69,-9,90,0,69,0,30,21,00,0,00,48,30,2,98,0,00,4,80,2,98,0,00,4,80
8852,0,49,0,69,-10,19,0,69,0,30,21,00,0,00,48,30,5,69,0,00,11,33,5,69,0,00,11,33
8868,-0,20,0,29,-10,19,0,00,-0,10,-7,00,0,00,0,00,3,78,0,00,9,63,3,78,0,00,9,63
8884,-0,20,0,39,-10,09,0,00,0,00,0,00,0,00,0,00,3,22,0,00,8,18,3,22,0,00,8,18
8903,-0,20,0,39,-10,09,0,00,0,00,0,00,0,00,0,00,2,73,0,00,6,95,2,73,0,00,6,95
8919,-0,20,0,29,-10,19,0,00,-0,10,-7,00,0,00,0,00,1,27,0,00,5,91,1,27,0,00,5,91
8942,-0,20,0,29,-10,19,0,00,-0,10,-7,00,0,00,0,00,0,03,0,00,5,02,0,03,0,00,5,02
8959,-0,20,0,49,-10,19,0,00,0,10,7,00,0,00,0,00,1,08,0,00,4,27,1,08,0,00,4,27
8976,-0,20,0,49,-10,19,0,00,0,10,7,00,0,00,0,00,1,97,0,00,3,63,1,97,0,00,3,63
8992,-0,20,0,49,-10,19,0,00,0,10,7,00,0,00,0,00,2,72,0,00,3,09,2,72,0,00,3,09
9008,-0,20,0,39,-10,09,0,00,0,00,0,00,0,00,0,00,2,31,0,00,2,62,2,31,0,00,2,62
9024,-0,20,0,39,-10,09,0,00,0,00,0,00,0,00,0,00,1,97,0,00,2,23,1,97,0,00,2,23
9040,-0,20,0,29,-10,19,0,00,-0,10,-7,00,0,00,0,00,0,62,0,00,1,90,0,62,0,00,1,90
9060,-0,20,0,29,-10,09,0,00,-0,10,-7,00,0,00,0,00,-0,52,0,00,1,61,-0,52,0,00,1,61
9077,-0,20,0,39,-10,09,0,00,0,00,0,00,0,00,0,00,-0,44,0,00,1,37,-0,44,0,00,1,37
9096,-0,20,0,49,-10,19,0,00,0,10,7,00,0,00,0,00,0,67,0,00,1,16,0,67,0,00,1,16
9112,-0,20,0,49,-10,19,0,00,0,10,7,00,0,00,0,00,1,62,0,00,0,99,1,62,0,00,0,99
9129,0,00,0,49,-10,19,0,20,0,10,7,00,0,00,14,00,2,43,0,00,2,94,2,43,0,00,2,94
9148,0,00,0,49,-10,19,0,20,0,10,7,00,0,00,14,00,3,11,0,00,4,60,3,11,0,00,4,60
9164,-0,20,0,39,-10,09,0,00,0,00,0,00,0,00,0,00,2,65,0,00,3,91,2,65,0,00,3,91
9180,-0,20,0,39,-10,29,0,00,0,00,0,00,0,00,0,00,2,25,0,00,3,32,2,25,0,00,3,32
9197,-0,20,0,39,-10,29,0,00,0,00,0,00,0,00,0,00,1,91,0,00,2,82,1,91,0,00,2,82
9214,-0,20,0,39,-10,09,0,00,0,00,0,00,0,00,0,00,1,63,0,00,2,40,1,63,0,00,2,40
9232,-0,20,0,39,-10,09,0,00,0,00,0,00,0,00,0,00,1,38,0,00,2,04,1,38,0,00,2,04
9248,0,00,0,39,-10,09,0,20,0,00,0,00,0,00,14,00,1,17,0,00,3,83,1,17,0,00,3,83
9264,0,00,0,39,-10,09,0,20,0,00,0,00,0,00,14,00,1,00,0,00,5,36,1,00,0,00,5,36
9280,-0,20,0,39,-10,09,0,00,0,00,0,00,0,00,0,00,0,85,0,00,4,56,0,85,0,00,4,56
9297,-0,20,0,39,-10,39,0,00,0,00,0,00,0,00,0,00,0,72,0,00,3,87,0,72,0,00,3,87
9316,0,00,0,88,-10,39,0,20,0,49,34,30,0,00,14,00,5,76,0,00,5,39,5,76,0,00,5,39
9334,0,00,0,88,-10,19,0,20,0,49,34,30,0,00,14,00,10,04,0,00,6,68,10,04,0,00,6,68
9353,-0,59,0,10,-10,19,-0,39,-0,29,-20,30,0,00,-27,30,5,49,0,00,1,59,5,49,0,00,1,59
9373,-0,20,0,39,-10,09,0,00,0,00,0,00,0,00,0,00,4,67,0,00,1,35,4,67,0,00,1,35
9391,-0,20,0,39,-9,51,0,00,0,00,0,00,0,00,0,00,3,97,0,00,1,15,3,97,0,00,1,15
9407,-1,37,-0,69,-9,51,-1,17,-1,08,-75,60,0,00,-81,90,-7,97,0,00,-11,31,-7,97,0,00,-11,31
9423,-1,37,-0,69,-9,51,-1,17,-1,08,-75,60,0,00,-81,90,-18,11,0,00,-21,90,-18,11,0,00,-21,90
9440,-1,37,-0,69,-9,51,-1,17,-1,08,-75,60,0,00,-81,90,-26,74,0,00,-30,90,-26,74,0,00,-30,90
9459,-0,78,0,10,-10,19,-0,58,-0,29,-20,30,0,00,-40,60,-25,77,0,00,-32,35,-25,77,0,00,-32,35
9475,-0,78,0,10,-10,19,-0,58,-0,29,-20,30,0,00,-40,60,-24,95,0,00,-33,59,-24,95,0,00,-33,59
9492,0,49,0,78,-10,29,0,69,0,39,27,30,0,00,48,30,-17,11,0,00,-21,31,-17,11,0,00,-21,31
9509,0,49,0,78,-10,29,0,69,0,39,27,30,0,00,48,30,-10,45,0,00,-10,87,-10,45,0,00,-10,87
9525,0,49,0,78,-10,29,0,69,0,39,27,30,0,00,48,30,-4,79,0,00,-1,99,-4,79,0,00,-1,99
9542,0,49,0,78,-10,00,0,69,0,39,27,30,0,00,48,30,0,02,0,00,5,55,0,02,0,00,5,55
9560,0,88,1,08,-10,00,1,08,0,69,48,30,0,00,75,60,7,27,0,00,16,06,7,27,0,00,16,06
9576,0,88,1,67,-10,68,1,08,1,28,89,60,0,00,75,60,19,62,0,00,24,99,19,62,0,00,24,99
9592,0,78,1,67,-10,68,0,98,1,28,89,60,0,00,68,60,30,11,0,00,31,53,30,11,0,00,31,53
9608,0,78,1,08,-10,19,0,98,0,69,48,30,0,00,68,60,32,84,0,00,37,09,32,84,0,00,37,09
9625,0,78,1,08,-10,19,0,98,0,69,48,30,0,00,68,60,35,16,0,00,41,82,35,16,0,00,41,82
9642,-1,37,0,69,-8,92,-1,17,0,30,21,00,0,00,-81,90,33,04,0,00,23,26,33,04,0,00,23,26
9659,-1,37,0,69,-10,19,-1,17,0,30,21,00,0,00,-81,90,31,23,0,00,7,49,31,23,0,00,7,49
9680,-0,59,1,76,-10,19,-0,39,1,37,95,90,0,00,-27,30,40,93,0,00,2,27,40,93,0,00,2,27
9699,-0,59,1,08,-13,52,-0,39,0,69,48,30,0,00,-27,30,42,04,0,00,-2,17,42,04,0,00,-2,17
9719,-2,45,1,08,-16,07,-2,25,0,69,48,30,0,00,-157,50,42,98,0,00,-25,47,42,98,0,00,-25,47
9736,-3,72,0,98,-16,07,-3,52,0,59,41,30,0,00,-246,40,42,72,0,00,-58,61,42,72,0,00,-58,61
9760,-3,72,0,98,-12,64,-3,52,0,59,41,30,0,00,-246,40,42,51,0,00,-86,78,42,51,0,00,-86,78
9777,-5,59,0,98,-12,64,-5,39,0,59,41,30,0,00,-377,30,42,33,0,00,-130,35,42,33,0,00,-90,00
9793,-2,94,1,76,-11,47,-2,74,1,37,95,90,0,00,-191,80,50,36,0,00,-139,57,50,36,0,00,-90,00
9810,-2,94,1,76,-9,60,-2,74,1,37,95,90,0,00,-191,80,57,20,0,00,-147,41,57,20,0,00,-90,00
9827,-6,37,1,76,-9,60,-6,17,1,37,95,90,0,00,-431,90,63,00,0,00,-190,08,63,00,0,00,-90,00
9844,-6,37,1,76,-9,60,-6,17,1,37,95,90,0,00,-431,90,67,94,0,00,-226,35,67,94,0,00,-90,00
9863,-6,37,1,76,-9,60,-6,17,1,37,95,90,0,00,-431,90,72,13,0,00,-257,18,72,13,0,00,-90,00
9879,-6,47,1,47,-11,27,-6,27,1,08,75,60,0,00,-438,90,72,65,0,00,-284,44,72,65,0,00,-90,00
9895,-6,47,1,47,-11,27,-6,27,1,08,75,60,0,00,-438,90,73,09,0,00,-307,61,73,09,0,00,-90,00
9912,-5,59,1,37,-8,13,-5,39,0,98,68,60,0,00,-377,30,72,42,0,00,-318,06,72,42,0,00,-90,00
9929,-5,59,1,37,-8,13,-5,39,0,98,68,60,0,00,-377,30,71,85,0,00,-326,95,71,85,0,00,-90,00
9947,-6,76,0,39,-5,68,-6,56,0,00,0,00,0,00,-459,20,61,07,0,00,-346,79,61,07,0,00,-90,00
9965,-6,76,0,39,-8,53,-6,56,0,00,0,00,0,00,-459,20,51,91,0,00,-363,65,51,91,0,00,-90,00
9981,-3,53,0,88,-8,53,-3,33,0,49,34,30,0,00,-233,10,49,27,0,00,-344,07,49,27,0,00,-90,00
9997,-3,53,0,78,-5,78,-3,33,0,39,27,30,0,00,-233,10,45,97,0,00,-327,42,45,97,0,00,-90,00
10013,-2,94,0,78,-5,78,-2,74,0,39,27,30,0,00,-191,80,43,17,0,00,-307,08,43,17,0,00,-90,00
10031,-3,04,1,47,-5,59,-2,84,1,08,75,60,0,00,-198,80,48,04,0,00,-290,84,48,04,0,00,-90,00
10047,-3,04,1,47,-5,59,-2,84,1,08,75,60,0,00,-198,80,52,17,0,00,-277,03,52,17,0,00,-90,00
10065,-3,04,1,47,-5,59,-2,84,1,08,75,60,0,00,-198,80,55,68,0,00,-265,30,55,68,0,00,-90,00
10082,-3,04,1,47,-9,51,-2,84,1,08,75,60,0,00,-198,80,58,67,0,00,-255,32,58,67,0,00,-90,00
10099,0,78,4,02,-9,51,0,98,3,63,254,10,0,00,68,60,87,99,0,00,-206,73,87,99,0,00,-90,00
10118,0,78,4,02,-7,94,0,98,3,63,254,10,0,00,68,60,112,90,0,00,-165,43,90,00,0,00,-90,00
10140,1,27,4,02,-8,62,1,47,3,63,254,10,0,00,102,90,134,08,0,00,-125,18,90,00,0,00,-90,00
10162,0,59,4,61,-8,62,0,79,4,22,295,40,0,00,55,30,158,28,0,00,-98,11,90,00,0,00,-90,00
10192,1,67,6,08,-11,37,1,87,5,69,398,30,0,00,130,90,194,28,0,00,-63,76,90,00,0,00,-63,76
10209,1,57,6,57,-8,82,1,77,6,18,432,60,0,00,123,90,230,03,0,00,-35,61,90,00,0,00,-35,61
10226,1,57,6,57,-8,82,1,77,6,18,432,60,0,00,123,90,260,42,0,00,-11,68,90,00,0,00,-11,68
10242,0,88,6,08,-10,39,1,08,5,69,398,30,0,00,75,60,281,10,0,00,1,41,90,00,0,00,1,41
10262,0,88,6,08,-10,39,1,08,5,69,398,30,0,00,75,60,298,68,0,00,12,54,90,00,0,00,12,54
10278,0,88,6,08,-10,39,1,08,5,69,398,30,0,00,75,60,313,62,0,00,22,00,90,00,0,00,22,00
10294,0,88,6,57,-11,86,1,08,6,18,432,60,0,00,75,60,331,47,0,00,30,04,90,00,0,00,30,04
10310,1,67,6,57,-11,86,1,87,6,18,432,60,0,00,130,90,346,64,0,00,45,17,90,00,0,00,45,17
10329,-0,29,5,39,-10,98,-0,09,5,00,350,00,0,00,-6,30,347,14,0,00,37,45,90,00,0,00,37,45
10353,-0,29,6,57,-11,86,-0,09,6,18,432,60,0,00,-6,30,359,96,0,00,30,88,90,00,0,00,30,88
10374,0,78,6,57,-11,86,0,98,6,18,432,60,0,00,68,60,370,86,0,00,36,54,90,00,0,00,36,54
10394,-0,78,5,29,-14,50,-0,58,4,90,343,00,0,00,-40,60,366,68,0,00,24,97,90,00,0,00,24,97
10411,-0,78,5,29,-13,23,-0,58,4,90,343,00,0,00,-40,60,363,13,0,00,15,14,90,00,0,00,15,14
10428,-1,08,3,23,-13,23,-0,88,2,84,198,80,0,00,-61,60,338,48,0,00,3,62,90,00,0,00,3,62
10445,-1,08,2,16,-9,51,-0,88,1,77,123,90,0,00,-61,60,306,29,0,00,-6,16,90,00,0,00,-6,16
10461,-1,96,2,16,-9,51,-1,76,1,77,123,90,0,00,-123,20,278,93,0,00,-23,72,90,00,0,00,-23,72
10478,-1,96,2,16,-9,51,-1,76,1,77,123,90,0,00,-123,20,255,68,0,00,-38,64,90,00,0,00,-38,64
10496,-1,96,2,16,-9,51,-1,76,1,77,123,90,0,00,-123,20,235,91,0,00,-51,32,90,00,0,00,-51,32
10513,-2,94,-0,39,-13,62,-2,74,-0,78,-54,60,0,00,-191,80,192,33,0,00,-72,39,90,00,0,00,-72,39
10530,-2,94,-0,39,-8,92,-2,74,-0,78,-54,60,0,00,-191,80,155,29,0,00,-90,30,90,00,0,00,-90,00
10548,0,20,1,37,-8,92,0,40,0,98,68,60,0,00,28,00,142,29,0,00,-72,56,90,00,0,00,-72,56
10565,0,20,0,78,-9,41,0,40,0,39,27,30,0,00,28,00,125,04,0,00,-57,48,90,00,0,00,-57,48
10582,-1,96,0,78,-9,41,-1,76,0,39,27,30,0,00,-123,20,110,38,0,00,-67,33,90,00,0,00,-67,33
10598,-2,94,0,00,-8,62,-2,74,-0,39,-27,30,0,00,-191,80,89,73,0,00,-86,00,89,73,0,00,-86,00
10615,-2,94,0,00,-8,62,-2,74,-0,39,-27,30,0,00,-191,80,72,17,0,00,-101,87,72,17,0,00,-90,00
10632,-1,96,-0,78,-7,45,-1,76,-1,17,-81,90,0,00,-123,20,49,06,0,00,-105,07,49,06,0,00,-90,00
10652,-1,96,-0,78,-10,98,-1,76,-1,17,-81,90,0,00,-123,20,29,42,0,00,-107,79,29,42,0,00,-90,00
10669,-3,43,1,76,-10,98,-3,23,1,37,95,90,0,00,-226,10,39,39,0,00,-125,54,39,39,0,00,-90,00
10691,-3,43,1,76,-10,98,-3,23,1,37,95,90,0,00,-226,10,47,87,0,00,-140,62,47,87,0,00,-90,00
10708,-3,43,1,76,-10,98,-3,23,1,37,95,90,0,00,-226,10,55,07,0,00,-153,44,55,07,0,00,-90,00
10726,-2,94,3,23,-11,96,-2,74,2,84,198,80,0,00,-191,80,76,63,0,00,-159,20,76,63,0,00,-90,00
10743,-2,94,3,23,-11,66,-2,74,2,84,198,80,0,00,-191,80,94,96,0,00,-164,09,90,00,0,00,-90,00
10759,-4,02,0,98,-11,66,-3,82,0,59,41,30,0,00,-267,40,86,91,0,00,-179,58,86,91,0,00,-90,00
10775,-4,02,2,45,-9,41,-3,82,2,06,144,20,0,00,-267,40,95,50,0,00,-192,76,90,00,0,00,-90,00
10791,-3,04,2,45,-9,41,-2,84,2,06,144,20,0,00,-198,80,102,81,0,00,-193,66,90,00,0,00,-90,00
10816,-1,08,2,94,-9,21,-0,88,2,55,178,50,0,00,-61,60,114,16,0,00,-173,85,90,00,0,00,-90,00
10834,-1,08,2,94,-9,51,-0,88,2,55,178,50,0,00,-61,60,123,81,0,00,-157,02,90,00,0,00,-90,00
10864,-0,20,2,35,-10,39,0,00,1,96,137,20,0,00,0,00,125,82,0,00,-133,46,90,00,0,00,-90,00
10880,0,78,1,27,-10,39,0,98,0,88,61,60,0,00,68,60,116,19,0,00,-103,15,90,00,0,00,-90,00
10896,0,78,1,37,-9,80,0,98,0,98,68,60,0,00,68,60,109,05,0,00,-77,39,90,00,0,00,-77,39
10913,0,88,1,37,-9,80,1,08,0,98,68,60,0,00,75,60,102,98,0,00,-54,44,90,00,0,00,-54,44
10930,0,59,0,98,-10,29,0,79,0,59,41,30,0,00,55,30,93,73,0,00,-37,98,90,00,0,00,-37,98
10948,0,59,0,98,-10,29,0,79,0,59,41,30,0,00,55,30,85,86,0,00,-23,99,85,86,0,00,-23,99
10965,0,59,-1,57,-7,55,0,79,-1,96,-137,20,0,00,55,30,52,41,0,00,-12,10,52,41,0,00,-12,10
10985,0,88,-1,57,-11,07,1,08,-1,96,-137,20,0,00,75,60,23,96,0,00,1,06,23,96,0,00,1,06
11001,-0,20,-0,39,-11,07,0,00,-0,78,-54,60,0,00,0,00,12,18,0,00,0,90,12,18,0,00,0,90
11018,-0,20,-0,88,-11,17,0,00,-1,27,-88,90,0,00,0,00,-2,98,0,00,0,77,-2,98,0,00,0,77
11035,-0,29,-0,88,-11,17,-0,09,-1,27,-88,90,0,00,-6,30,-15,87,0,00,-0,29,-15,87,0,00,-0,29
11056,0,00,0,20,-11,27,0,20,-0,19,-13,30,0,00,14,00,-15,48,0,00,1,85,-15,48,0,00,1,85
11072,0,00,0,20,-9,70,0,20,-0,19,-13,30,0,00,14,00,-15,16,0,00,3,67,-15,16,0,00,3,67
11088,0,29,0,29,-9,70,0,49,-0,10,-7,00,0,00,34,30,-13,93,0,00,8,27,-13,93,0,00,8,27
11104,0,29,1,86,-11,56,0,49,1,47,102,90,0,00,34,30,3,59,0,00,12,17,3,59,0,00,12,17
11120,-0,78,1,86,-11,56,-0,58,1,47,102,90,0,00,-40,60,18,49,0,00,4,26,18,49,0,00,4,26
11136,-0,78,1,86,-11,56,-0,58,1,47,102,90,0,00,-40,60,31,15,0,00,-2,47,31,15,0,00,-2,47
11152,-0,78,1,86,-11,56,-0,58,1,47,102,90,0,00,-40,60,41,91,0,00,-8,19,41,91,0,00,-8,19
11173,0,49,0,20,-9,90,0,69,-0,19,-13,30,0,00,48,30,33,63,0,00,0,28,33,63,0,00,0,28
11191,0,49,0,20,-9,60,0,69,-0,19,-13,30,0,00,48,30,26,59,0,00,7,48,26,59,0,00,7,48
11207,-0,20,-0,59,-9,60,0,00,-0,98,-68,60,0,00,0,00,12,31,0,00,6,36,12,31,0,00,6,36
11223,-0,20,-0,59,-10,19,0,00,-0,98,-68,60,0,00,0,00,0,18,0,00,5,41,0,18,0,00,5,41
11240,-0,49,-0,29,-10,19,-0,29,-0,68,-47,60,0,00,-20,30,-6,99,0,00,1,55,-6,99,0,00,1,55
11258,-0,49,-0,29,-9,11,-0,29,-0,68,-47,60,0,00,-20,30,-13,08,0,00,-1,73,-13,08,0,00,-1,73
11279,-0,88,-0,29,-9,11,-0,68,-0,68,-47,60,0,00,-47,60,-18,26,0,00,-8,61,-18,26,0,00,-8,61
11295,-0,88,0,39,-9,31,-0,68,0,00,0,00,0,00,-47,60,-15,52,0,00,-14,46,-15,52,0,00,-14,46
11312,-0,88,0,39,-12,35,-0,68,0,00,0,00,0,00,-47,60,-13,19,0,00,-19,43,-13,19,0,00,-19,43
11327,0,20,-0,10,-12,35,0,40,-0,49,-34,30,0,00,28,00,-16,36,0,00,-12,31,-16,36,0,00,-12,31
11343,0,20,-0,10,-11,07,0,40,-0,49,-34,30,0,00,28,00,-19,05,0,00,-6,27,-19,05,0,00,-6,27
11359,-0,20,-0,39,-11,07,0,00,-0,78,-54,60,0,00,0,00,-24,38,0,00,-5,33,-24,38,0,00,-5,33
11375,-0,20,-0,29,-10,19,0,00,-0,68,-47,60,0,00,0,00,-27,87,0,00,-4,53,-27,87,0,00,-4,53
11391,0,29,-0,29,-10,19,0,49,-0,68,-47,60,0,00,34,30,-30,83,0,00,1,30,-30,83,0,00,1,30
11407,0,29,0,29,-9,41,0,49,-0,10,-7,00,0,00,34,30,-27,25,0,00,6,25,-27,25,0,00,6,25
11423,-0,20,0,29,-9,41,0,00,-0,10,-7,00,0,00,0,00,-24,21,0,00,5,31,-24,21,0,00,5,31
11446,-0,29,0,98,-11,47,-0,09,0,59,41,30,0,00,-6,30,-14,39,0,00,3,57,-14,39,0,00,3,57
11465,-0,29,0,10,-11,17,-0,09,-0,29,-20,30,0,00,-6,30,-15,27,0,00,2,09,-15,27,0,00,2,09
11482,-0,88,0,10,-11,17,-0,68,-0,29,-20,30,0,00,-47,60,-16,03,0,00,-5,37,-16,03,0,00,-5,37
11501,-1,67,-1,37,-7,45,-1,47,-1,76,-123,20,0,00,-102,90,-32,10,0,00,-20,00,-32,10,0,00,-20,00
11518,-1,67,-1,37,-7,45,-1,47,-1,76,-123,20,0,00,-102,90,-45,77,0,00,-32,43,-45,77,0,00,-32,43
11535,-1,67,-1,37,-7,45,-1,47,-1,76,-123,20,0,00,-102,90,-57,38,0,00,-43,00,-57,38,0,00,-43,00
11551,-1,67,-1,37,-11,07,-1,47,-1,76,-123,20,0,00,-102,90,-67,26,0,00,-51,99,-67,26,0,00,-51,99
11571,0,20,0,49,-11,07,0,40,0,10,7,00,0,00,28,00,-56,12,0,00,-39,99,-56,12,0,00,-39,99
11591,0,29,0,20,-10,09,0,49,-0,19,-13,30,0,00,34,30,-49,69,0,00,-28,84,-49,69,0,00,-28,84
11608,0,29,0,20,-9,80,0,49,-0,19,-13,30,0,00,34,30,-44,24,0,00,-19,37,-44,24,0,00,-19,37
11624,0,88,-0,20,-9,80,1,08,-0,59,-41,30,0,00,75,60,-43,80,0,00,-5,13,-43,80,0,00,-5,13
11646,0,88,0,20,-10,49,1,08,-0,19,-13,30,0,00,75,60,-39,22,0,00,6,98,-39,22,0,00,6,98
11665,0,88,0,20,-10,49,1,08,-0,19,-13,30,0,00,75,60,-35,33,0,00,17,27,-35,33,0,00,17,27
11681,0,29,0,00,-9,60,0,49,-0,39,-27,30,0,00,34,30,-34,13,0,00,19,83,-34,13,0,00,19,83
11699,0,29,0,00,-10,58,0,49,-0,39,-27,30,0,00,34,30,-33,10,0,00,22,00,-33,10,0,00,22,00
11715,-0,29,-0,20,-10,58,-0,09,-0,59,-41,30,0,00,-6,30,-34,33,0,00,17,75,-34,33,0,00,17,75
11733,-0,29,-0,20,-10,78,-0,09,-0,59,-41,30,0,00,-6,30,-35,38,0,00,14,15,-35,38,0,00,14,15
11750,-0,29,0,20,-10,78,-0,09,-0,19,-13,30,0,00,-6,30,-32,07,0,00,11,08,-32,07,0,00,11,08
11766,-0,29,0,20,-10,09,-0,09,-0,19,-13,30,0,00,-6,30,-29,25,0,00,8,47,-29,25,0,00,8,47
11782,0,00,0,20,-10,09,0,20,-0,19,-13,30,0,00,14,00,-26,86,0,00,9,30,-26,86,0,00,9,30
11798,0,00,-0,10,-10,00,0,20,-0,49,-34,30,0,00,14,00,-27,97,0,00,10,01,-27,97,0,00,10,01
11814,-0,20,-0,10,-10,00,0,00,-0,49,-34,30,0,00,0,00,-28,92,0,00,8,51,-28,92,0,00,8,51
11830,-0,29,0,00,-9,60,-0,09,-0,39,-27,30,0,00,-6,30,-28,68,0,00,6,28,-28,68,0,00,6,28
11846,-0,29,0,00,-9,60,-0,09,-0,39,-27,30,0,00,-6,30,-28,47,0,00,4,40,-28,47,0,00,4,40
11864,-0,49,0,00,-9,90,-0,29,-0,39,-27,30,0,00,-20,30,-28,30,0,00,0,69,-28,30,0,00,0,69
11880,-0,49,0,00,-10,88,-0,29,-0,39,-27,30,0,00,-20,30,-28,15,0,00,-2,46,-28,15,0,00,-2,46
11901,-0,20,0,00,-10,88,0,00,-0,39,-27,30,0,00,0,00,-28,02,0,00,-2,09,-28,02,0,00,-2,09
11918,-0,20,0,10,-10,98,0,00,-0,29,-20,30,0,00,0,00,-26,86,0,00,-1,77,-26,86,0,00,-1,77
11937,-0,20,0,10,-10,98,0,00,-0,29,-20,30,0,00,0,00,-25,88,0,00,-1,51,-25,88,0,00,-1,51
11957,-0,29,-0,29,-9,70,-0,09,-0,68,-47,60,0,00,-6,30,-29,14,0,00,-2,23,-29,14,0,00,-2,23
11973,-0,29,-0,29,-9,70,-0,09,-0,68,-47,60,0,00,-6,30,-31,91,0,00,-2,84,-31,91,0,00,-2,84
11990,-0,29,-0,29,-9,70,-0,09,-0,68,-47,60,0,00,-6,30,-34,26,0,00,-3,36,-34,26,0,00,-3,36
12008,-0,29,0,00,-10,29,-0,09,-0,39,-27,30,0,00,-6,30,-33,22,0,00,-3,80,-33,22,0,00,-3,80
12024,-0,29,0,00,-10,29,-0,09,-0,39,-27,30,0,00,-6,30,-32,33,0,00,-4,17,-32,33,0,00,-4,17
12041,-0,20,0,00,-10,29,0,00,-0,39,-27,30,0,00,0,00,-31,57,0,00,-3,55,-31,57,0,00,-3,55
12058,-0,20,0,00,-10,29,0,00,-0,39,-27,30,0,00,0,00,-30,93,0,00,-3,02,-30,93,0,00,-3,02
12075,-0,29,-0,10,-9,70,-0,09,-0,49,-34,30,0,00,-6,30,-31,44,0,00,-3,51,-31,44,0,00,-3,51
12093,-0,29,-0,10,-10,39,-0,09,-0,49,-34,30,0,00,-6,30,-31,87,0,00,-3,93,-31,87,0,00,-3,93
12110,-0,20,0,10,-10,39,0,00,-0,29,-20,30,0,00,0,00,-30,13,0,00,-3,34,-30,13,0,00,-3,34
12135,-0,20,0,20,-10,78,0,00,-0,19,-13,30,0,00,0,00,-27,61,0,00,-2,84,-27,61,0,00,-2,84
12153,-0,29,0,10,-9,80,-0,09,-0,29,-20,30,0,00,-6,30,-26,51,0,00,-3,36,-26,51,0,00,-3,36
12181,-0,49,0,10,-10,09,-0,29,-0,29,-20,30,0,00,-20,30,-25,58,0,00,-5,90,-25,58,0,00,-5,90
12198,-0,20,0,20,-10,09,0,00,-0,19,-13,30,0,00,0,00,-23,74,0,00,-5,01,-23,74,0,00,-5,01
12215,-0,20,0,00,-10,29,0,00,-0,39,-27,30,0,00,0,00,-24,27,0,00,-4,26,-24,27,0,00,-4,26
12233,-0,20,0,00,-10,29,0,00,-0,39,-27,30,0,00,0,00,-24,73,0,00,-3,62,-24,73,0,00,-3,62
12250,-0,20,0,10,-10,00,0,00,-0,29,-20,30,0,00,0,00,-24,06,0,00,-3,08,-24,06,0,00,-3,08
12266,-0,20,0,10,-10,00,0,00,-0,29,-20,30,0,00,0,00,-23,50,0,00,-2,62,-23,50,0,00,-2,62
12281,-0,29,0,10,-10,19,-0,09,-0,29,-20,30,0,00,-6,30,-23,02,0,00,-3,17,-23,02,0,00,-3,17
12298,-0,29,0,10,-10,19,-0,09,-0,29,-20,30,0,00,-6,30,-22,61,0,00,-3,64,-22,61,0,00,-3,64
12314,-0,29,0,00,-10,09,-0,09,-0,39,-27,30,0,00,-6,30,-23,31,0,00,-4,04,-23,31,0,00,-4,04
12332,-0,29,0,00,-10,29,-0,09,-0,39,-27,30,0,00,-6,30,-23,91,0,00,-4,38,-23,91,0,00,-4,38
12348,-0,20,0,20,-10,29,0,00,-0,19,-13,30,0,00,0,00,-22,32,0,00,-3,72,-22,32,0,00,-3,72
12365,-0,20,0,29,-10,39,0,00,-0,10,-7,00,0,00,0,00,-20,02,0,00,-3,16,-20,02,0,00,-3,16
12382,-0,20,0,29,-10,39,0,00,-0,10,-7,00,0,00,0,00,-18,07,0,00,-2,69,-18,07,0,00,-2,69
12399,-0,20,0,29,-10,39,0,00,-0,10,-7,00,0,00,0,00,-16,41,0,00,-2,29,-16,41,0,00,-2,29
12418,-0,20,0,29,-10,00,0,00,-0,10,-7,00,0,00,0,00,-15,00,0,00,-1,94,-15,00,0,00,-1,94
12435,-0,29,0,29,-10,00,-0,09,-0,10,-7,00,0,00,-6,30,-13,80,0,00,-2,60,-13,80,0,00,-2,60
12458,-0,49,0,39,-10,09,-0,29,0,00,0,00,0,00,-20,30,-11,73,0,00,-5,25,-11,73,0,00,-5,25
12474,-0,49,0,39,-10,09,-0,29,0,00,0,00,0,00,-20,30,-9,97,0,00,-7,51,-9,97,0,00,-7,51
12491,-0,49,0,20,-10,09,-0,29,-0,19,-13,30,0,00,-20,30,-10,47,0,00,-9,43,-10,47,0,00,-9,43
12510,-0,49,0,20,-10,29,-0,29,-0,19,-13,30,0,00,-20,30,-10,89,0,00,-11,06,-10,89,0,00,-11,06
12530,-0,29,0,39,-10,29,-0,09,0,00,0,00,0,00,-6,30,-9,26,0,00,-10,34,-9,26,0,00,-10,34
12550,-0,29,0,39,-10,09,-0,09,0,00,0,00,0,00,-6,30,-7,87,0,00,-9,74,-7,87,0,00,-9,74
12566,-0,29,0,39,-10,09,-0,09,0,00,0,00,0,00,-6,30,-6,69,0,00,-9,22,-6,69,0,00,-9,22
12583,-0,29,0,39,-10,09,-0,09,0,00,0,00,0,00,-6,30,-5,69,0,00,-8,78,-5,69,0,00,-8,78
12599,-0,29,0,39,-10,49,-0,09,0,00,0,00,0,00,-6,30,-4,83,0,00,-8,41,-4,83,0,00,-8,41
12617,-0,20,0,49,-10,49,0,00,0,10,7,00,0,00,0,00,-3,06,0,00,-7,15,-3,06,0,00,-7,15
12633,-0,20,0,49,-10,19,0,00,0,10,7,00,0,00,0,00,-1,55,0,00,-6,08,-1,55,0,00,-6,08
12653,-0,29,0,29,-10,19,-0,09,-0,10,-7,00,0,00,-6,30,-2,37,0,00,-6,11,-2,37,0,00,-6,11
12670,-0,20,0,59,-10,00,0,00,0,20,14,00,0,00,0,00,0,09,0,00,-5,19,0,09,0,00,-5,19
12688,-0,20,0,59,-10,00,0,00,0,20,14,00,0,00,0,00,2,17,0,00,-4,41,2,17,0,00,-4,41
12704,-0,29,0,29,-10,19,-0,09,-0,10,-7,00,0,00,-6,30,0,80,0,00,-4,70,0,80,0,00,-4,70
12720,-0,29,0,29,-10,09,-0,09,-0,10,-7,00,0,00,-6,30,-0,37,0,00,-4,94,-0,37,0,00,-4,94
12736,-0,29,0,39,-10,09,-0,09,0,00,0,00,0,00,-6,30,-0,32,0,00,-5,14,-0,32,0,00,-5,14
12752,-0,29,0,39,-10,09,-0,09,0,00,0,00,0,00,-6,30,-0,27,0,00,-5,32,-0,27,0,00,-5,32
12769,-0,29,0,39,-10,09,-0,09,0,00,0,00,0,00,-6,30,-0,23,0,00,-5,46,-0,23,0,00,-5,46
12796,-0,20,0,39,-10,09,0,00,0,00,0,00,0,00,0,00,-0,19,0,00,-4,64,-0,19,0,00,-4,64
12812,-0,20,0,39,-10,09,0,00,0,00,0,00,0,00,0,00,-0,16,0,00,-3,95,-0,16,0,00,-3,95
12830,-0,20,0,39,-10,09,0,00,0,00,0,00,0,00,0,00,-0,14,0,00,-3,36,-0,14,0,00,-3,36
12848,-0,20,0,39,-10,09,0,00,0,00,0,00,0,00,0,00,-0,12,0,00,-2,85,-0,12,0,00,-2,85
12865,-0,20,0,39,-10,09,0,00,0,00,0,00,0,00,0,00,-0,10,0,00,-2,42,-0,10,0,00,-2,42
12882,-0,20,0,39,-10,19,0,00,0,00,0,00,0,00,0,00,-0,09,0,00,-2,06,-0,09,0,00,-2,06
12898,-0,49,0,49,-10,00,-0,29,0,10,7,00,0,00,-20,30,0,98,0,00,-4,80,0,98,0,00,-4,80
12913,-0,20,0,59,-10,00,0,00,0,20,14,00,0,00,0,00,2,93,0,00,-4,08,2,93,0,00,-4,08
12928,-0,20,0,59,-10,00,0,00,0,20,14,00,0,00,0,00,4,59,0,00,-3,47,4,59,0,00,-3,47
12943,-0,20,0,69,-10,49,0,00,0,30,21,00,0,00,0,00,7,05,0,00,-2,95,7,05,0,00,-2,95
12959,-0,20,0,69,-10,00,0,00,0,30,21,00,0,00,0,00,9,14,0,00,-2,50,9,14,0,00,-2,50
12974,-0,29,0,59,-10,00,-0,09,0,20,14,00,0,00,-6,30,9,87,0,00,-3,07,9,87,0,00,-3,07
12991,-0,29,0,59,-10,39,-0,09,0,20,14,00,0,00,-6,30,10,49,0,00,-3,56,10,49,0,00,-3,56
13014,-0,29,0,59,-10,39,-0,09,0,20,14,00,0,00,-6,30,11,02,0,00,-3,97,11,02,0,00,-3,97
13031,-0,29,0,49,-10,19,-0,09,0,10,7,00,0,00,-6,30,10,42,0,00,-4,32,10,42,0,00,-4,32
13050,-0,29,0,49,-10,00,-0,09,0,10,7,00,0,00,-6,30,9,90,0,00,-4,62,9,90,0,00,-4,62
13065,-0,29,0,78,-10,00,-0,09,0,39,27,30,0,00,-6,30,12,51,0,00,-4,87,12,51,0,00,-4,87
13081,-0,29,0,78,-10,29,-0,09,0,39,27,30,0,00,-6,30,14,73,0,00,-5,08,14,73,0,00,-5,08
13097,-0,29,0,98,-10,29,-0,09,0,59,41,30,0,00,-6,30,18,72,0,00,-5,27,18,72,0,00,-5,27
13113,-0,29,0,98,-10,19,-0,09,0,59,41,30,0,00,-6,30,22,10,0,00,-5,42,22,10,0,00,-5,42
13130,-0,29,0,88,-10,19,-0,09,0,49,34,30,0,00,-6,30,23,93,0,00,-5,55,23,93,0,00,-5,55
13146,-0,29,0,98,-10,09,-0,09,0,59,41,30,0,00,-6,30,26,54,0,00,-5,66,26,54,0,00,-5,66
13163,-0,20,0,98,-10,09,0,00,0,59,41,30,0,00,0,00,28,75,0,00,-4,82,28,75,0,00,-4,82
13180,-0,29,1,08,-10,39,-0,09,0,69,48,30,0,00,-6,30,31,68,0,00,-5,04,31,68,0,00,-5,04
13196,-0,29,1,08,-10,39,-0,09,0,69,48,30,0,00,-6,30,34,18,0,00,-5,23,34,18,0,00,-5,23
13212,-0,29,0,88,-9,90,-0,09,0,49,34,30,0,00,-6,30,34,20,0,00,-5,39,34,20,0,00,-5,39
13229,-0,29,0,88,-9,90,-0,09,0,49,34,30,0,00,-6,30,34,21,0,00,-5,52,34,21,0,00,-5,52
13244,-0,29,0,88,-9,90,-0,09,0,49,34,30,0,00,-6,30,34,22,0,00,-5,64,34,22,0,00,-5,64
13260,-0,29,0,88,-9,80,-0,09,0,49,34,30,0,00,-6,30,34,24,0,00,-5,74,34,24,0,00,-5,74
13276,-0,20,0,98,-9,80,0,00,0,59,41,30,0,00,0,00,35,30,0,00,-4,88,35,30,0,00,-4,88
13292,-0,20,0,98,-10,19,0,00,0,59,41,30,0,00,0,00,36,20,0,00,-4,15,36,20,0,00,-4,15
13310,-0,20,1,08,-10,19,0,00,0,69,48,30,0,00,0,00,38,01,0,00,-3,53,38,01,0,00,-3,53
13327,-0,20,1,18,-10,09,0,00,0,79,55,30,0,00,0,00,40,60,0,00,-3,00,40,60,0,00,-3,00
13345,-0,20,1,18,-10,09,0,00,0,79,55,30,0,00,0,00,42,81,0,00,-2,55,42,81,0,00,-2,55
13363,-0,29,1,08,-10,00,-0,09,0,69,48,30,0,00,-6,30,43,63,0,00,-3,11,43,63,0,00,-3,11
13378,-0,29,1,08,-10,09,-0,09,0,69,48,30,0,00,-6,30,44,33,0,00,-3,59,44,33,0,00,-3,59
13397,-0,20,1,18,-10,09,0,00,0,79,55,30,0,00,0,00,45,98,0,00,-3,05,45,98,0,00,-3,05
13413,-0,20,1,18,-10,29,0,00,0,79,55,30,0,00,0,00,47,38,0,00,-2,59,47,38,0,00,-2,59
13430,-0,29,1,18,-10,29,-0,09,0,79,55,30,0,00,-6,30,48,56,0,00,-3,15,48,56,0,00,-3,15
13446,-0,29,0,98,-9,80,-0,09,0,59,41,30,0,00,-6,30,47,48,0,00,-3,62,47,48,0,00,-3,62
13462,-0,29,0,98,-9,80,-0,09,0,59,41,30,0,00,-6,30,46,55,0,00,-4,02,46,55,0,00,-4,02
13479,-0,29,1,18,-10,09,-0,09,0,79,55,30,0,00,-6,30,47,86,0,00,-4,36,47,86,0,00,-4,36
13495,-0,20,1,18,-10,09,0,00,0,79,55,30,0,00,0,00,48,98,0,00,-3,71,48,98,0,00,-3,71
13511,-0,20,1,18,-10,09,0,00,0,79,55,30,0,00,0,00,49,93,0,00,-3,15,49,93,0,00,-3,15
13527,-0,20,1,18,-10,09,0,00,0,79,55,30,0,00,0,00,50,73,0,00,-2,68,50,73,0,00,-2,68
13543,-0,20,1,27,-10,00,0,00,0,88,61,60,0,00,0,00,52,36,0,00,-2,28,52,36,0,00,-2,28
13559,-0,20,1,27,-10,00,0,00,0,88,61,60,0,00,0,00,53,75,0,00,-1,94,53,75,0,00,-1,94
13575,-0,29,1,27,-10,00,-0,09,0,88,61,60,0,00,-6,30,54,93,0,00,-2,59,54,93,0,00,-2,59
13591,-0,29,1,27,-10,19,-0,09,0,88,61,60,0,00,-6,30,55,93,0,00,-3,15,55,93,0,00,-3,15
13609,-0,29,1,08,-10,19,-0,09,0,69,48,30,0,00,-6,30,54,78,0,00,-3,62,54,78,0,00,-3,62
13629,-0,29,1,08,-10,19,-0,09,0,69,48,30,0,00,-6,30,53,81,0,00,-4,02,53,81,0,00,-4,02
13646,-0,20,1,08,-10,19,0,00,0,69,48,30,0,00,0,00,52,98,0,00,-3,42,52,98,0,00,-3,42
13664,-0,20,1,08,-10,00,0,00,0,69,48,30,0,00,0,00,52,28,0,00,-2,91,52,28,0,00,-2,91
13684,-0,20,1,08,-10,00,0,00,0,69,48,30,0,00,0,00,51,68,0,00,-2,47,51,68,0,00,-2,47
13701,-0,20,1,08,-10,00,0,00,0,69,48,30,0,00,0,00,51,18,0,00,-2,10,51,18,0,00,-2,10
13722,-0,29,1,18,-10,09,-0,09,0,79,55,30,0,00,-6,30,51,79,0,00,-2,73,51,79,0,00,-2,73
13739,-0,29,1,18,-10,19,-0,09,0,79,55,30,0,00,-6,30,52,32,0,00,-3,27,52,32,0,00,-3,27
13756,-0,29,1,08,-10,19,-0,09,0,69,48,30,0,00,-6,30,51,72,0,00,-3,72,51,72,0,00,-3,72
13774,-0,29,0,88,-9,70,-0,09,0,49,34,30,0,00,-6,30,49,10,0,00,-4,11,49,10,0,00,-4,11
13790,-0,29,0,88,-9,70,-0,09,0,49,34,30,0,00,-6,30,46,88,0,00,-4,44,46,88,0,00,-4,44
13807,-0,20,0,98,-10,09,0,00,0,59,41,30,0,00,0,00,46,05,0,00,-3,77,46,05,0,00,-3,77
13823,-0,20,0,98,-10,09,0,00,0,59,41,30,0,00,0,00,45,33,0,00,-3,21,45,33,0,00,-3,21
13839,-0,20,0,98,-10,29,0,00,0,59,41,30,0,00,0,00,44,73,0,00,-2,72,44,73,0,00,-2,72
13857,-0,20,0,98,-10,29,0,00,0,59,41,30,0,00,0,00,44,21,0,00,-2,32,44,21,0,00,-2,32
13873,-0,29,0,88,-9,90,-0,09,0,49,34,30,0,00,-6,30,42,73,0,00,-2,91,42,73,0,00,-2,91
13889,-0,29,0,88,-9,90,-0,09,0,49,34,30,0,00,-6,30,41,46,0,00,-3,42,41,46,0,00,-3,42
13907,-0,29,0,88,-9,90,-0,09,0,49,34,30,0,00,-6,30,40,39,0,00,-3,85,40,39,0,00,-3,85
13923,-0,29,0,88,-10,39,-0,09,0,49,34,30,0,00,-6,30,39,48,0,00,-4,22,39,48,0,00,-4,22
13939,-0,29,0,88,-10,39,-0,09,0,49,34,30,0,00,-6,30,38,70,0,00,-4,53,38,70,0,00,-4,53
13956,-0,29,0,78,-10,29,-0,09,0,39,27,30,0,00,-6,30,36,99,0,00,-4,80,36,99,0,00,-4,80
13972,-0,20,0,78,-10,29,0,00,0,39,27,30,0,00,0,00,35,54,0,00,-4,08,35,54,0,00,-4,08
13990,-0,29,0,69,-10,09,-0,09,0,30,21,00,0,00,-6,30,33,36,0,00,-4,41,33,36,0,00,-4,41
14010,-0,29,0,69,-10,00,-0,09,0,30,21,00,0,00,-6,30,31,50,0,00,-4,69,31,50,0,00,-4,69
14031,-0,29,0,78,-10,00,-0,09,0,39,27,30,0,00,-6,30,30,87,0,00,-4,94,30,87,0,00,-4,94
14049,-0,29,0,59,-10,00,-0,09,0,20,14,00,0,00,-6,30,28,34,0,00,-5,14,28,34,0,00,-5,14
14065,-0,29,0,59,-10,00,-0,09,0,20,14,00,0,00,-6,30,26,19,0,00,-5,31,26,19,0,00,-5,31
14081,-0,29,0,59,-10,00,-0,09,0,20,14,00,0,00,-6,30,24,36,0,00,-5,46,24,36,0,00,-5,46
14097,-0,29,0,59,-10,00,-0,09,0,20,14,00,0,00,-6,30,22,81,0,00,-5,59,22,81,0,00,-5,59
14113,-0,29,0,59,-10,00,-0,09,0,20,14,00,0,00,-6,30,21,49,0,00,-5,69,21,49,0,00,-5,69
14131,-0,29,0,59,-10,29,-0,09,0,20,14,00,0,00,-6,30,20,36,0,00,-5,79,20,36,0,00,-5,79
14147,-0,29,0,39,-10,29,-0,09,0,00,0,00,0,00,-6,30,17,31,0,00,-5,86,17,31,0,00,-5,86
14162,-0,29,0,39,-10,00,-0,09,0,00,0,00,0,00,-6,30,14,71,0,00,-5,93,14,71,0,00,-5,93
14178,-0,29,0,10,-10,00,-0,09,-0,29,-20,30,0,00,-6,30,9,46,0,00,-5,98,9,46,0,00,-5,98
14194,-0,29,0,20,-10,09,-0,09,-0,19,-13,30,0,00,-6,30,6,05,0,00,-6,03,6,05,0,00,-6,03
14209,-0,20,0,20,-10,09,0,00,-0,19,-13,30,0,00,0,00,3,14,0,00,-5,13,3,14,0,00,-5,13
14225,-0,20,0,20,-10,09,0,00,-0,19,-13,30,0,00,0,00,0,68,0,00,-4,36,0,68,0,00,-4,36
14246,-0,29,0,20,-10,09,-0,09,-0,19,-13,30,0,00,-6,30,-1,42,0,00,-4,65,-1,42,0,00,-4,65
14263,-0,20,0,20,-10,29,0,00,-0,19,-13,30,0,00,0,00,-3,20,0,00,-3,95,-3,20,0,00,-3,95
14282,-0,20,0,20,-10,39,0,00,-0,19,-13,30,0,00,0,00,-4,72,0,00,-3,36,-4,72,0,00,-3,36
14298,-0,29,0,29,-10,39,-0,09,-0,10,-7,00,0,00,-6,30,-5,06,0,00,-3,80,-5,06,0,00,-3,80
14314,-0,29,-0,10,-10,00,-0,09,-0,49,-34,30,0,00,-6,30,-9,44,0,00,-4,18,-9,44,0,00,-4,18
14329,-0,20,-0,10,-10,00,0,00,-0,49,-34,30,0,00,0,00,-13,17,0,00,-3,55,-13,17,0,00,-3,55
14347,-0,20,0,00,-10,29,0,00,-0,39,-27,30,0,00,0,00,-15,29,0,00,-3,02,-15,29,0,00,-3,02
14367,-0,20,0,00,-10,29,0,00,-0,39,-27,30,0,00,0,00,-17,09,0,00,-2,56,-17,09,0,00,-2,56
14383,-0,29,0,00,-10,49,-0,09,-0,39,-27,30,0,00,-6,30,-18,62,0,00,-3,12,-18,62,0,00,-3,12
14398,-0,29,0,00,-9,90,-0,09,-0,39,-27,30,0,00,-6,30,-19,93,0,00,-3,60,-19,93,0,00,-3,60
14413,-0,29,-0,29,-9,90,-0,09,-0,68,-47,60,0,00,-6,30,-24,08,0,00,-4,01,-24,08,0,00,-4,01
14428,-0,29,-0,29,-9,90,-0,09,-0,68,-47,60,0,00,-6,30,-27,61,0,00,-4,35,-27,61,0,00,-4,35
14444,-0,29,-0,20,-10,29,-0,09,-0,59,-41,30,0,00,-6,30,-29,66,0,00,-4,64,-29,66,0,00,-4,64
14461,-0,29,-0,20,-10,39,-0,09,-0,59,-41,30,0,00,-6,30,-31,41,0,00,-4,89,-31,41,0,00,-4,89
14477,-0,29,-0,39,-10,39,-0,09,-0,78,-54,60,0,00,-6,30,-34,88,0,00,-5,10,-34,88,0,00,-5,10
14497,-0,29,-0,59,-10,09,-0,09,-0,98,-68,60,0,00,-6,30,-39,94,0,00,-5,28,-39,94,0,00,-5,28
14516,-0,29,-0,59,-10,09,-0,09,-0,98,-68,60,0,00,-6,30,-44,24,0,00,-5,43,-44,24,0,00,-5,43
14533,-0,29,-0,59,-10,09,-0,09,-0,98,-68,60,0,00,-6,30,-47,89,0,00,-5,56,-47,89,0,00,-5,56
14550,-0,29,-0,59,-10,09,-0,09,-0,98,-68,60,0,00,-6,30,-51,00,0,00,-5,67,-51,00,0,00,-5,67
14565,-0,49,-0,69,-10,00,-0,29,-1,08,-75,60,0,00,-20,30,-54,69,0,00,-7,87,-54,69,0,00,-7,87
14584,-0,49,-0,69,-10,29,-0,29,-1,08,-75,60,0,00,-20,30,-57,83,0,00,-9,73,-57,83,0,00,-9,73
14600,-0,49,-0,49,-10,29,-0,29,-0,88,-61,60,0,00,-20,30,-58,39,0,00,-11,32,-58,39,0,00,-11,32
14615,-0,49,-0,98,-10,09,-0,29,-1,37,-95,90,0,00,-20,30,-64,02,0,00,-12,67,-64,02,0,00,-12,67
14630,-0,20,-0,98,-10,09,0,00,-1,37,-95,90,0,00,0,00,-68,80,0,00,-10,77,-68,80,0,00,-10,77
14646,-0,20,-0,98,-10,09,0,00,-1,37,-95,90,0,00,0,00,-72,87,0,00,-9,15,-72,87,0,00,-9,15
14662,-0,20,-0,98,-10,09,0,00,-1,37,-95,90,0,00,0,00,-76,32,0,00,-7,78,-76,32,0,00,-7,78
14677,-0,20,-0,88,-10,00,0,00,-1,27,-88,90,0,00,0,00,-78,21,0,00,-6,61,-78,21,0,00,-6,61
14694,-0,20,-0,88,-10,00,0,00,-1,27,-88,90,0,00,0,00,-79,81,0,00,-5,62,-79,81,0,00,-5,62
14712,-0,29,-0,98,-10,09,-0,09,-1,37,-95,90,0,00,-6,30,-82,22,0,00,-5,72,-82,22,0,00,-5,72
14731,-0,29,-0,98,-10,19,-0,09,-1,37,-95,90,0,00,-6,30,-84,28,0,00,-5,81,-84,28,0,00,-5,81
14749,-0,49,-0,88,-10,19,-0,29,-1,27,-88,90,0,00,-20,30,-84,97,0,00,-7,98,-84,97,0,00,-7,98
14766,-0,49,-0,88,-10,00,-0,29,-1,27,-88,90,0,00,-20,30,-85,56,0,00,-9,83,-85,56,0,00,-9,83
14784,-0,49,-0,88,-10,00,-0,29,-1,27,-88,90,0,00,-20,30,-86,06,0,00,-11,40,-86,06,0,00,-11,40
14802,-0,29,-0,98,-10,09,-0,09,-1,37,-95,90,0,00,-6,30,-87,54,0,00,-10,64,-87,54,0,00,-10,64
14822,-0,29,-0,98,-10,19,-0,09,-1,37,-95,90,0,00,-6,30,-88,79,0,00,-9,99,-88,79,0,00,-9,99
14839,-0,29,-1,08,-10,19,-0,09,-1,47,-102,90,0,00,-6,30,-90,91,0,00,-9,43,-90,00,0,00,-9,43
14858,-0,29,-0,98,-9,70,-0,09,-1,37,-95,90,0,00,-6,30,-91,66,0,00,-8,96,-90,00,0,00,-8,96
14876,-0,29,-0,98,-9,70,-0,09,-1,37,-95,90,0,00,-6,30,-92,29,0,00,-8,56,-90,00,0,00,-8,56
14892,-0,20,-0,59,-10,58,0,00,-0,98,-68,60,0,00,0,00,-88,74,0,00,-7,28,-88,74,0,00,-7,28
14909,-0,20,-0,59,-10,49,0,00,-0,98,-68,60,0,00,0,00,-85,72,0,00,-6,19,-85,72,0,00,-6,19
14926,-0,20,-0,69,-10,49,0,00,-1,08,-75,60,0,00,0,00,-84,20,0,00,-5,26,-84,20,0,00,-5,26
14945,-0,20,-0,69,-10,49,0,00,-1,08,-75,60,0,00,0,00,-82,91,0,00,-4,47,-82,91,0,00,-4,47
14961,-0,20,-0,69,-10,49,0,00,-1,08,-75,60,0,00,0,00,-81,81,0,00,-3,80,-81,81,0,00,-3,80
14977,-0,20,-0,49,-10,49,0,00,-0,88,-61,60,0,00,0,00,-78,78,0,00,-3,23,-78,78,0,00,-3,23
14993,-0,20,-0,49,-10,49,0,00,-0,88,-61,60,0,00,0,00,-76,20,0,00,-2,75,-76,20,0,00,-2,75
15010,-0,49,-0,39,-9,80,-0,29,-0,78,-54,60,0,00,-20,30,-72,96,0,00,-5,38,-72,96,0,00,-5,38
15027,-0,49,-0,39,-9,80,-0,29,-0,78,-54,60,0,00,-20,30,-70,21,0,00,-7,62,-70,21,0,00,-7,62
15044,-0,49,-0,29,-9,70,-0,29,-0,68,-47,60,0,00,-20,30,-66,82,0,00,-9,52,-66,82,0,00,-9,52
15062,-0,29,-0,29,-10,29,-0,09,-0,68,-47,60,0,00,-6,30,-63,94,0,00,-9,04,-63,94,0,00,-9,04
15078,0,00,0,00,-10,29,0,20,-0,39,-27,30,0,00,14,00,-58,44,0,00,-5,58,-58,44,0,00,-5,58
15095,0,00,0,00,-10,29,0,20,-0,39,-27,30,0,00,14,00,-53,77,0,00,-2,64,-53,77,0,00,-2,64
15111,0,20,0,00,-10,29,0,40,-0,39,-27,30,0,00,28,00,-49,80,0,00,1,95,-49,80,0,00,1,95
15127,-0,20,0,20,-10,29,0,00,-0,19,-13,30,0,00,0,00,-44,32,0,00,1,66,-44,32,0,00,1,66
15143,-0,20,0,20,-10,29,0,00,-0,19,-13,30,0,00,0,00,-39,67,0,00,1,41,-39,67,0,00,1,41
15160,-0,20,0,10,-10,19,0,00,-0,29,-20,30,0,00,0,00,-36,76,0,00,1,20,-36,76,0,00,1,20
15176,-0,20,0,10,-10,19,0,00,-0,29,-20,30,0,00,0,00,-34,29,0,00,1,02,-34,29,0,00,1,02
15193,-0,20,0,10,-10,19,0,00,-0,29,-20,30,0,00,0,00,-32,20,0,00,0,87,-32,20,0,00,0,87
15209,-0,20,0,10,-10,49,0,00,-0,29,-20,30,0,00,0,00,-30,41,0,00,0,74,-30,41,0,00,0,74
15225,0,00,0,20,-10,49,0,20,-0,19,-13,30,0,00,14,00,-27,84,0,00,2,73,-27,84,0,00,2,73
15241,0,00,0,20,-10,00,0,20,-0,19,-13,30,0,00,14,00,-25,66,0,00,4,42,-25,66,0,00,4,42
15257,0,00,0,10,-10,00,0,20,-0,29,-20,30,0,00,14,00,-24,86,0,00,5,85,-24,86,0,00,5,85
15275,0,00,0,10,-10,00,0,20,-0,29,-20,30,0,00,14,00,-24,17,0,00,7,08,-24,17,0,00,7,08
15298,-0,20,0,10,-10,00,0,00,-0,29,-20,30,0,00,0,00,-23,59,0,00,6,01,-23,59,0,00,6,01
15314,-0,20,0,29,-10,39,0,00,-0,10,-7,00,0,00,0,00,-21,10,0,00,5,11,-21,10,0,00,5,11
15330,-0,20,0,29,-10,39,0,00,-0,10,-7,00,0,00,0,00,-18,99,0,00,4,35,-18,99,0,00,4,35
15348,-0,20,0,39,-10,09,0,00,0,00,0,00,0,00,0,00,-16,14,0,00,3,69,-16,14,0,00,3,69
15372,0,00,0,49,-10,19,0,20,0,10,7,00,0,00,14,00,-12,67,0,00,5,24,-12,67,0,00,5,24
15392,0,00,0,49,-10,19,0,20,0,10,7,00,0,00,14,00,-9,72,0,00,6,55,-9,72,0,00,6,55
15408,0,00,0,49,-10,19,0,20,0,10,7,00,0,00,14,00,-7,21,0,00,7,67,-7,21,0,00,7,67
15426,0,00,0,10,-10,19,0,20,-0,29,-20,30,0,00,14,00,-9,17,0,00,8,62,-9,17,0,00,8,62
15450,0,20,0,10,-10,09,0,40,-0,29,-20,30,0,00,28,00,-10,84,0,00,11,53,-10,84,0,00,11,53
15480,0,20,0,20,-10,09,0,40,-0,19,-13,30,0,00,28,00,-11,21,0,00,14,00,-11,21,0,00,14,00
15517,0,29,0,59,-10,00,0,49,0,20,14,00,0,00,34,30,-7,43,0,00,17,04,-7,43,0,00,17,04
15547,0,49,0,10,-10,00,0,69,-0,29,-20,30,0,00,48,30,-9,36,0,00,21,73,-9,36,0,00,21,73
15582,0,59,0,10,-10,19,0,79,-0,29,-20,30,0,00,55,30,-11,00,0,00,26,77,-11,00,0,00,26,77
15615,0,88,0,10,-9,80,1,08,-0,29,-20,30,0,00,75,60,-12,40,0,00,34,09,-12,40,0,00,34,09
15655,1,27,0,10,-9,80,1,47,-0,29,-20,30,0,00,102,90,-13,58,0,00,44,41,-13,58,0,00,44,41
15693,1,27,0,29,-10,00,1,47,-0,10,-7,00,0,00,102,90,-12,59,0,00,53,19,-12,59,0,00,53,19
15741,1,27,0,49,-9,80,1,47,0,10,7,00,0,00,102,90,-9,66,0,00,60,64,-9,66,0,00,60,64
15776,1,67,0,29,-10,00,1,87,-0,10,-7,00,0,00,130,90,-9,26,0,00,71,18,-9,26,0,00,71,18
15825,1,57,0,49,-10,19,1,77,0,10,7,00,0,00,123,90,-6,82,0,00,79,09,-6,82,0,00,79,09
15878,1,86,0,49,-9,90,2,06,0,10,7,00,0,00,144,20,-4,75,0,00,88,86,-4,75,0,00,88,86
15977,1,96,0,29,-10,09,2,16,-0,10,-7,00,0,00,151,20,-5,08,0,00,98,21,-5,08,0,00,90,00
16076,1,96,0,29,-9,70,2,16,-0,10,-7,00,0,00,151,20,-5,37,0,00,106,16,-5,37,0,00,90,00
16135,1,86,0,39,-10,09,2,06,0,00,0,00,0,00,144,20,-4,57,0,00,111,86,-4,57,0,00,90,00
16232,1,86,0,39,-10,00,2,06,0,00,0,00,0,00,144,20,-3,88,0,00,116,71,-3,88,0,00,90,00
16288,1,67,0,29,-10,00,1,87,-0,10,-7,00,0,00,130,90,-4,35,0,00,118,84,-4,35,0,00,90,00
16348,1,67,0,00,-10,09,1,87,-0,39,-27,30,0,00,130,90,-7,79,0,00,120,65,-7,79,0,00,90,00
16401,1,37,0,39,-10,09,1,57,0,00,0,00,0,00,109,90,-6,62,0,00,119,04,-6,62,0,00,90,00
16441,1,57,0,39,-9,90,1,77,0,00,0,00,0,00,123,90,-5,63,0,00,119,77,-5,63,0,00,90,00
16478,0,78,0,00,-10,09,0,98,-0,39,-27,30,0,00,68,60,-8,88,0,00,112,09,-8,88,0,00,90,00
16503,0,78,0,20,-10,29,0,98,-0,19,-13,30,0,00,68,60,-9,54,0,00,105,57,-9,54,0,00,90,00
16532,0,78,0,39,-10,29,0,98,0,00,0,00,0,00,68,60,-8,11,0,00,100,02,-8,11,0,00,90,00
16560,0,59,0,39,-10,19,0,79,0,00,0,00,0,00,55,30,-6,89,0,00,93,31,-6,89,0,00,90,00
16585,0,49,0,29,-10,19,0,69,-0,10,-7,00,0,00,48,30,-6,91,0,00,86,56,-6,91,0,00,86,56
16613,0,29,0,20,-10,09,0,49,-0,19,-13,30,0,00,34,30,-7,87,0,00,78,72,-7,87,0,00,78,72
16636,0,29,0,39,-10,29,0,49,0,00,0,00,0,00,34,30,-6,69,0,00,72,06,-6,69,0,00,72,06
16667,0,29,0,39,-10,29,0,49,0,00,0,00,0,00,34,30,-5,69,0,00,66,40,-5,69,0,00,66,40
16695,0,29,0,39,-10,29,0,49,0,00,0,00,0,00,34,30,-4,83,0,00,61,58,-4,83,0,00,61,58
16721,0,20,0,39,-10,09,0,40,0,00,0,00,0,00,28,00,-4,11,0,00,56,54,-4,11,0,00,56,54
16749,0,20,0,20,-10,09,0,40,-0,19,-13,30,0,00,28,00,-5,49,0,00,52,26,-5,49,0,00,52,26
16776,0,20,0,20,-10,19,0,40,-0,19,-13,30,0,00,28,00,-6,66,0,00,48,62,-6,66,0,00,48,62
16801,0,20,0,49,-10,09,0,40,0,10,7,00,0,00,28,00,-4,61,0,00,45,53,-4,61,0,00,45,53
16825,-0,20,0,39,-10,09,0,00,0,00,0,00,0,00,0,00,-3,92,0,00,38,70,-3,92,0,00,38,70
16851,-0,20,0,39,-10,09,0,00,0,00,0,00,0,00,0,00,-3,33,0,00,32,90,-3,33,0,00,32,90
16868,0,00,0,29,-10,19,0,20,-0,10,-7,00,0,00,14,00,-3,88,0,00,30,06,-3,88,0,00,30,06
16890,0,00,0,29,-10,19,0,20,-0,10,-7,00,0,00,14,00,-4,35,0,00,27,65,-4,35,0,00,27,65
16906,0,00,0,29,-10,19,0,20,-0,10,-7,00,0,00,14,00,-4,75,0,00,25,60,-4,75,0,00,25,60
16924,0,00,0,39,-10,29,0,20,0,00,0,00,0,00,14,00,-4,03,0,00,23,86,-4,03,0,00,23,86
16940,-0,20,0,39,-10,29,0,00,0,00,0,00,0,00,0,00,-3,43,0,00,20,28,-3,43,0,00,20,28
16956,-0,20,0,20,-10,29,0,00,-0,19,-13,30,0,00,0,00,-4,91,0,00,17,24,-4,91,0,00,17,24
16975,-0,29,0,20,-10,29,-0,09,-0,19,-13,30,0,00,-6,30,-6,17,0,00,13,71,-6,17,0,00,13,71
16995,-0,20,0,20,-10,09,0,00,-0,19,-13,30,0,00,0,00,-7,24,0,00,11,65,-7,24,0,00,11,65
17011,-0,20,0,20,-10,19,0,00,-0,19,-13,30,0,00,0,00,-8,15,0,00,9,91,-8,15,0,00,9,91
17029,-0,20,0,29,-10,19,0,00,-0,10,-7,00,0,00,0,00,-7,98,0,00,8,42,-7,98,0,00,8,42
17048,-0,20,0,29,-10,19,0,00,-0,10,-7,00,0,00,0,00,-7,83,0,00,7,16,-7,83,0,00,7,16
17067,-0,20,0,29,-10,19,0,00,-0,10,-7,00,0,00,0,00,-7,70,0,00,6,08,-7,70,0,00,6,08
17084,-0,20,0,29,-10,19,0,00,-0,10,-7,00,0,00,0,00,-7,60,0,00,5,17,-7,60,0,00,5,17
17104,-0,20,0,29,-10,19,0,00,-0,10,-7,00,0,00,0,00,-7,51,0,00,4,40,-7,51,0,00,4,40
17120,-0,20,0,29,-10,19,0,00,-0,10,-7,00,0,00,0,00,-7,43,0,00,3,74,-7,43,0,00,3,74
17136,-0,20,0,29,-10,19,0,00,-0,10,-7,00,0,00,0,00,-7,37,0,00,3,18,-7,37,0,00,3,18
17153,-0,29,0,29,-10,19,-0,09,-0,10,-7,00,0,00,-6,30,-7,31,0,00,1,75,-7,31,0,00,1,75
17174,-0,29,0,29,-10,00,-0,09,-0,10,-7,00,0,00,-6,30,-7,27,0,00,0,55,-7,27,0,00,0,55
17190,-0,29,0,29,-10,00,-0,09,-0,10,-7,00,0,00,-6,30,-7,23,0,00,-0,48,-7,23,0,00,-0,48
17206,-0,29,0,20,-10,09,-0,09,-0,19,-13,30,0,00,-6,30,-8,14,0,00,-1,35,-8,14,0,00,-1,35
17222,-0,29,0,20,-10,09,-0,09,-0,19,-13,30,0,00,-6,30,-8,91,0,00,-2,10,-8,91,0,00,-2,10
17241,-0,29,0,20,-10,09,-0,09,-0,19,-13,30,0,00,-6,30,-9,57,0,00,-2,73,-9,57,0,00,-2,73
17258,-0,29,0,20,-10,09,-0,09,-0,19,-13,30,0,00,-6,30,-10,13,0,00,-3,26,-10,13,0,00,-3,26
17274,-0,29,0,20,-10,09,-0,09,-0,19,-13,30,0,00,-6,30,-10,60,0,00,-3,72,-10,60,0,00,-3,72
17290,-0,49,0,10,-10,39,-0,29,-0,29,-20,30,0,00,-20,30,-12,06,0,00,-6,21,-12,06,0,00,-6,21
17306,-0,49,0,10,-10,39,-0,29,-0,29,-20,30,0,00,-20,30,-13,30,0,00,-8,32,-13,30,0,00,-8,32
17322,-0,29,0,20,-10,09,-0,09,-0,19,-13,30,0,00,-6,30,-13,30,0,00,-8,02,-13,30,0,00,-8,02
17339,-0,29,0,20,-10,39,-0,09,-0,19,-13,30,0,00,-6,30,-13,30,0,00,-7,76,-13,30,0,00,-7,76
17355,0,00,0,29,-10,39,0,20,-0,10,-7,00,0,00,14,00,-12,36,0,00,-4,50,-12,36,0,00,-4,50
17373,0,00,0,29,-10,29,0,20,-0,10,-7,00,0,00,14,00,-11,55,0,00,-1,72,-11,55,0,00,-1,72
17391,0,20,0,20,-10,29,0,40,-0,19,-13,30,0,00,28,00,-11,81,0,00,2,74,-11,81,0,00,2,74
17407,0,20,0,69,-11,07,0,40,0,30,21,00,0,00,28,00,-6,89,0,00,6,53,-6,89,0,00,6,53
17426,0,59,0,69,-11,07,0,79,0,30,21,00,0,00,55,30,-2,71,0,00,13,84,-2,71,0,00,13,84
17443,0,59,0,69,-12,45,0,79,0,30,21,00,0,00,55,30,0,85,0,00,20,06,0,85,0,00,20,06
17460,0,88,0,29,-12,45,1,08,-0,10,-7,00,0,00,75,60,-0,33,0,00,28,39,-0,33,0,00,28,39
17480,0,88,0,29,-12,45,1,08,-0,10,-7,00,0,00,75,60,-1,33,0,00,35,47,-1,33,0,00,35,47
17496,0,88,0,10,-10,98,1,08,-0,29,-20,30,0,00,75,60,-4,18,0,00,41,49,-4,18,0,00,41,49
17512,2,16,0,10,-10,98,2,36,-0,29,-20,30,0,00,165,20,-6,59,0,00,60,05,-6,59,0,00,60,05
17527,2,16,1,08,-12,35,2,36,0,69,48,30,0,00,165,20,1,64,0,00,75,82,1,64,0,00,75,82
17542,2,65,1,08,-12,35,2,85,0,69,48,30,0,00,199,50,8,64,0,00,94,37,8,64,0,00,90,00
17559,2,65,1,08,-11,76,2,85,0,69,48,30,0,00,199,50,14,59,0,00,110,14,14,59,0,00,90,00
17574,0,59,0,20,-11,76,0,79,-0,19,-13,30,0,00,55,30,10,40,0,00,101,92,10,40,0,00,90,00
17590,-1,96,0,69,-8,72,-1,76,0,30,21,00,0,00,-123,20,11,99,0,00,68,15,11,99,0,00,68,15
17607,-1,96,0,69,-8,72,-1,76,0,30,21,00,0,00,-123,20,13,35,0,00,39,45,13,35,0,00,39,45
17623,-1,96,0,39,-9,31,-1,76,0,00,0,00,0,00,-123,20,11,34,0,00,15,05,11,34,0,00,15,05
17639,-2,16,0,39,-9,21,-1,96,0,00,0,00,0,00,-137,20,9,64,0,00,-7,79,9,64,0,00,-7,79
17656,-1,27,0,88,-9,21,-1,07,0,49,34,30,0,00,-74,90,13,34,0,00,-17,85,13,34,0,00,-17,85
17672,-1,27,0,88,-7,45,-1,07,0,49,34,30,0,00,-74,90,16,48,0,00,-26,41,16,48,0,00,-26,41
17689,-1,37,0,98,-7,45,-1,17,0,59,41,30,0,00,-81,90,20,21,0,00,-34,73,20,21,0,00,-34,73
17706,-1,37,2,06,-6,76,-1,17,1,67,116,90,0,00,-81,90,34,71,0,00,-41,81,34,71,0,00,-41,81
17722,-0,78,2,06,-6,76,-0,58,1,67,116,90,0,00,-40,60,47,04,0,00,-41,63,47,04,0,00,-41,63
17740,-3,43,1,57,-8,53,-3,23,1,18,82,60,0,00,-226,10,52,37,0,00,-69,30,52,37,0,00,-69,30
17757,-3,43,1,57,-8,53,-3,23,1,18,82,60,0,00,-226,10,56,91,0,00,-92,82,56,91,0,00,-90,00
17774,-2,94,1,27,-11,66,-2,74,0,88,61,60,0,00,-191,80,57,61,0,00,-107,67,57,61,0,00,-90,00
17791,-2,94,1,27,-11,86,-2,74,0,88,61,60,0,00,-191,80,58,21,0,00,-120,29,58,21,0,00,-90,00
17809,-3,23,1,08,-11,86,-3,03,0,69,48,30,0,00,-212,10,56,72,0,00,-134,06,56,72,0,00,-90,00
17825,-3,23,-2,35,-8,04,-3,03,-2,74,-191,80,0,00,-212,10,19,44,0,00,-145,76,19,44,0,00,-90,00
17842,-3,53,-2,35,-8,04,-3,33,-2,74,-191,80,0,00,-233,10,-12,24,0,00,-158,86,-12,24,0,00,-90,00
17857,-3,53,-2,35,-8,04,-3,33,-2,74,-191,80,0,00,-233,10,-39,18,0,00,-170,00,-39,18,0,00,-90,00
17873,-5,68,-1,67,-6,86,-5,48,-2,06,-144,20,0,00,-383,60,-54,93,0,00,-202,04,-54,93,0,00,-90,00
17891,-1,67,-2,65,-9,31,-1,47,-3,04,-212,80,0,00,-102,90,-78,61,0,00,-187,17,-78,61,0,00,-90,00
17907,-1,67,-2,65,-9,31,-1,47,-3,04,-212,80,0,00,-102,90,-98,74,0,00,-174,53,-90,00,0,00,-90,00
17923,-1,67,-2,65,-9,31,-1,47,-3,04,-212,80,0,00,-102,90,-115,85,0,00,-163,78,-90,00,0,00,-90,00
17952,-0,78,-5,10,-9,70,-0,58,-5,49,-384,30,0,00,-40,60,-156,12,0,00,-145,31,-90,00,0,00,-90,00
17968,-0,78,-5,10,-9,70,-0,58,-5,49,-384,30,0,00,-40,60,-190,34,0,00,-129,60,-90,00,0,00,-90,00
17984,-1,37,-3,43,-9,90,-1,17,-3,82,-267,40,0,00,-81,90,-201,90,0,00,-122,45,-90,00,0,00,-90,00
18000,-1,37,-3,43,-10,58,-1,17,-3,82,-267,40,0,00,-81,90,-211,73,0,00,-116,36,-90,00,0,00,-90,00
18016,-1,27,-2,06,-10,58,-1,07,-2,45,-171,50,0,00,-74,90,-205,69,0,00,-110,14,-90,00,0,00,-90,00
18032,-1,27,-2,06,-10,58,-1,07,-2,45,-171,50,0,00,-74,90,-200,56,0,00,-104,86,-90,00,0,00,-90,00
18048,-1,27,-0,39,-12,45,-1,07,-0,78,-54,60,0,00,-74,90,-178,67,0,00,-100,36,-90,00,0,00,-90,00
18066,0,29,-0,39,-11,27,0,49,-0,78,-54,60,0,00,34,30,-160,06,0,00,-80,16,-90,00,0,00,-80,16
18081,-3,43,-0,39,-11,27,-3,23,-0,78,-54,60,0,00,-226,10,-144,24,0,00,-102,05,-90,00,0,00,-90,00
18097,-3,43,-0,39,-11,27,-3,23,-0,78,-54,60,0,00,-226,10,-130,79,0,00,-120,66,-90,00,0,00,-90,00
18129,-3,04,-0,78,-7,94,-2,84,-1,17,-81,90,0,00,-198,80,-123,46,0,00,-132,38,-90,00,0,00,-90,00
18162,-3,23,-0,78,-9,60,-3,03,-1,17,-81,90,0,00,-212,10,-117,23,0,00,-144,34,-90,00,0,00,-90,00
18192,-1,96,-2,06,-9,60,-1,76,-2,45,-171,50,0,00,-123,20,-125,37,0,00,-141,17,-90,00,0,00,-90,00
18210,-1,96,-2,06,-9,60,-1,76,-2,45,-171,50,0,00,-123,20,-132,29,0,00,-138,47,-90,00,0,00,-90,00
18239,-1,27,-1,67,-7,84,-1,07,-2,06,-144,20,0,00,-74,90,-134,07,0,00,-128,94,-90,00,0,00,-90,00
18255,-1,57,-0,88,-7,84,-1,37,-1,27,-88,90,0,00,-95,90,-127,30,0,00,-123,98,-90,00,0,00,-90,00
18271,-1,57,-0,88,-7,84,-1,37,-1,27,-88,90,0,00,-95,90,-121,54,0,00,-119,77,-90,00,0,00,-90,00
18287,-0,78,-0,88,-8,04,-0,58,-1,27,-88,90,0,00,-40,60,-116,64,0,00,-107,89,-90,00,0,00,-90,00
18305,-0,78,0,20,-8,72,-0,58,-0,19,-13,30,0,00,-40,60,-101,14,0,00,-97,80,-90,00,0,00,-90,00
18335,-0,20,0,20,-8,72,0,00,-0,19,-13,30,0,00,0,00,-87,96,0,00,-83,13,-87,96,0,00,-83,13
18351,-0,20,0,20,-8,72,0,00,-0,19,-13,30,0,00,0,00,-76,77,0,00,-70,66,-76,77,0,00,-70,66
18367,-0,20,1,27,-10,88,0,00,0,88,61,60,0,00,0,00,-56,01,0,00,-60,06,-56,01,0,00,-60,06
18383,-1,08,1,27,-10,88,-0,88,0,88,61,60,0,00,-61,60,-38,37,0,00,-60,29,-38,37,0,00,-60,29
18400,-1,08,1,96,-11,66,-0,88,1,57,109,90,0,00,-61,60,-16,13,0,00,-60,49,-16,13,0,00,-60,49
18421,-1,96,1,96,-11,66,-1,76,1,57,109,90,0,00,-123,20,2,78,0,00,-69,90,2,78,0,00,-69,90
18438,-1,96,1,18,-10,09,-1,76,0,79,55,30,0,00,-123,20,10,65,0,00,-77,89,10,65,0,00,-77,89
18456,-1,96,1,18,-10,09,-1,76,0,79,55,30,0,00,-123,20,17,35,0,00,-84,69,17,35,0,00,-84,69
18472,-2,65,3,14,-12,05,-2,45,2,75,192,50,0,00,-171,50,43,62,0,00,-97,71,43,62,0,00,-90,00
18488,-2,74,2,06,-11,76,-2,54,1,67,116,90,0,00,-177,80,54,62,0,00,-109,72,54,62,0,00,-90,00
18505,-2,74,2,06,-11,76,-2,54,1,67,116,90,0,00,-177,80,63,96,0,00,-119,93,63,96,0,00,-90,00
18521,-2,74,2,06,-10,78,-2,54,1,67,116,90,0,00,-177,80,71,90,0,00,-128,61,71,90,0,00,-90,00
18538,-1,86,0,20,-10,78,-1,66,-0,19,-13,30,0,00,-116,20,59,12,0,00,-126,75,59,12,0,00,-90,00
18555,-1,86,0,29,-11,86,-1,66,-0,10,-7,00,0,00,-116,20,49,20,0,00,-125,17,49,20,0,00,-90,00
18572,-1,67,0,29,-11,86,-1,47,-0,10,-7,00,0,00,-102,90,40,77,0,00,-121,83,40,77,0,00,-90,00
18590,-1,57,1,47,-11,07,-1,37,1,08,75,60,0,00,-95,90,46,00,0,00,-117,94,46,00,0,00,-90,00
18606,-1,27,0,29,-9,02,-1,07,-0,10,-7,00,0,00,-74,90,38,05,0,00,-111,48,38,05,0,00,-90,00
18624,-1,27,0,29,-9,02,-1,07,-0,10,-7,00,0,00,-74,90,31,29,0,00,-106,00,31,29,0,00,-90,00
18640,-1,27,0,29,-9,51,-1,07,-0,10,-7,00,0,00,-74,90,25,55,0,00,-101,33,25,55,0,00,-90,00
18656,-1,67,0,69,-9,51,-1,47,0,30,21,00,0,00,-102,90,24,86,0,00,-101,57,24,86,0,00,-90,00
18672,0,78,0,78,-9,80,0,98,0,39,27,30,0,00,68,60,25,23,0,00,-76,04,25,23,0,00,-76,04
18688,0,78,0,78,-9,80,0,98,0,39,27,30,0,00,68,60,25,54,0,00,-54,35,25,54,0,00,-54,35
18705,0,78,0,29,-12,05,0,98,-0,10,-7,00,0,00,68,60,20,66,0,00,-35,90,20,66,0,00,-35,90
18721,-0,59,0,29,-12,05,-0,39,-0,10,-7,00,0,00,-27,30,16,51,0,00,-34,61,16,51,0,00,-34,61
18738,1,86,0,98,-10,78,2,06,0,59,41,30,0,00,144,20,20,23,0,00,-7,79,20,23,0,00,-7,79
18759,1,86,0,98,-9,31,2,06,0,59,41,30,0,00,144,20,23,39,0,00,15,01,23,39,0,00,15,01
18779,0,88,1,18,-9,31,1,08,0,79,55,30,0,00,75,60,28,18,0,00,24,10,28,18,0,00,24,10
18797,0,88,1,18,-9,31,1,08,0,79,55,30,0,00,75,60,32,24,0,00,31,82,32,24,0,00,31,82
18813,0,88,1,18,-9,31,1,08,0,79,55,30,0,00,75,60,35,70,0,00,38,39,35,70,0,00,38,39
18829,1,37,1,76,-10,49,1,57,1,37,95,90,0,00,109,90,44,73,0,00,49,12,44,73,0,00,49,12
18845,1,37,0,20,-11,07,1,57,-0,19,-13,30,0,00,109,90,36,03,0,00,58,23,36,03,0,00,58,23
18861,0,00,0,20,-11,07,0,20,-0,19,-13,30,0,00,14,00,28,63,0,00,51,60,28,63,0,00,51,60
18878,0,00,0,20,-10,00,0,20,-0,19,-13,30,0,00,14,00,22,34,0,00,45,96,22,34,0,00,45,96
18895,-1,08,-0,39,-10,00,-0,88,-0,78,-54,60,0,00,-61,60,10,80,0,00,29,82,10,80,0,00,29,82
18912,-1,08,-0,39,-9,51,-0,88,-0,78,-54,60,0,00,-61,60,0,99,0,00,16,11,0,99,0,00,16,11
18928,-0,20,-1,67,-9,51,0,00,-2,06,-144,20,0,00,0,00,-20,79,0,00,13,69,-20,79,0,00,13,69
18944,-0,20,-2,06,-8,82,0,00,-2,45,-171,50,0,00,0,00,-43,40,0,00,11,64,-43,40,0,00,11,64
18959,-0,78,-2,06,-8,72,-0,58,-2,45,-171,50,0,00,-40,60,-62,61,0,00,3,80,-62,61,0,00,3,80
18975,0,49,-1,27,-8,72,0,69,-1,66,-116,20,0,00,48,30,-70,65,0,00,10,48,-70,65,0,00,10,48
18992,0,49,-1,27,-8,72,0,69,-1,66,-116,20,0,00,48,30,-77,48,0,00,16,15,-77,48,0,00,16,15
19008,0,00,-0,88,-8,62,0,20,-1,27,-88,90,0,00,14,00,-79,20,0,00,15,83,-79,20,0,00,15,83
19023,0,00,-0,88,-10,68,0,20,-1,27,-88,90,0,00,14,00,-80,65,0,00,15,55,-80,65,0,00,15,55
19040,1,08,0,49,-10,68,1,28,0,10,7,00,0,00,89,60,-67,50,0,00,26,66,-67,50,0,00,26,66
19056,1,08,0,49,-11,66,1,28,0,10,7,00,0,00,89,60,-56,33,0,00,36,10,-56,33,0,00,36,10
19072,1,27,1,76,-11,66,1,47,1,37,95,90,0,00,102,90,-33,49,0,00,46,12,-33,49,0,00,46,12
19089,1,08,1,57,-10,98,1,28,1,18,82,60,0,00,89,60,-16,08,0,00,52,64,-16,08,0,00,52,64
19106,1,08,1,57,-10,98,1,28,1,18,82,60,0,00,89,60,-1,28,0,00,58,19,-1,28,0,00,58,19
19123,1,08,1,57,-9,51,1,28,1,18,82,60,0,00,89,60,11,30,0,00,62,90,11,30,0,00,62,90
19140,0,59,-0,10,-9,51,0,79,-0,49,-34,30,0,00,55,30,4,46,0,00,61,76,4,46,0,00,61,76
19157,0,59,0,29,-10,19,0,79,-0,10,-7,00,0,00,55,30,2,74,0,00,60,79,2,74,0,00,60,79
19176,0,78,0,29,-10,19,0,98,-0,10,-7,00,0,00,68,60,1,28,0,00,61,96,1,28,0,00,61,96
19198,0,78,0,29,-10,39,0,98,-0,10,-7,00,0,00,68,60,0,04,0,00,62,96,0,04,0,00,62,96
19213,0,78,0,29,-10,39,0,98,-0,10,-7,00,0,00,68,60,-1,02,0,00,63,80,-1,02,0,00,63,80
19232,0,78,0,29,-10,39,0,98,-0,10,-7,00,0,00,68,60,-1,91,0,00,64,52,-1,91,0,00,64,52
19248,0,78,0,29,-10,39,0,98,-0,10,-7,00,0,00,68,60,-2,68,0,00,65,13,-2,68,0,00,65,13
19265,0,78,0,00,-9,60,0,98,-0,39,-27,30,0,00,68,60,-6,37,0,00,65,65,-6,37,0,00,65,65
19282,0,49,0,00,-9,60,0,69,-0,39,-27,30,0,00,48,30,-9,51,0,00,63,05,-9,51,0,00,63,05
19298,0,49,0,00,-10,68,0,69,-0,39,-27,30,0,00,48,30,-12,18,0,00,60,84,-12,18,0,00,60,84
19313,0,29,0,29,-10,68,0,49,-0,10,-7,00,0,00,34,30,-11,40,0,00,56,86,-11,40,0,00,56,86
19329,0,29,0,29,-9,70,0,49,-0,10,-7,00,0,00,34,30,-10,74,0,00,53,47,-10,74,0,00,53,47
19344,0,59,0,29,-9,70,0,79,-0,10,-7,00,0,00,55,30,-10,18,0,00,53,75,-10,18,0,00,53,75
19362,0,59,0,39,-10,78,0,79,0,00,0,00,0,00,55,30,-8,65,0,00,53,98,-8,65,0,00,53,98
19378,0,59,0,39,-10,78,0,79,0,00,0,00,0,00,55,30,-7,36,0,00,54,18,-7,36,0,00,54,18
19393,0,59,0,29,-10,39,0,79,-0,10,-7,00,0,00,55,30,-7,30,0,00,54,35,-7,30,0,00,54,35
19409,0,59,0,29,-10,39,0,79,-0,10,-7,00,0,00,55,30,-7,26,0,00,54,49,-7,26,0,00,54,49
19427,0,59,0,10,-9,80,0,79,-0,29,-20,30,0,00,55,30,-9,21,0,00,54,61,-9,21,0,00,54,61
19443,0,59,0,10,-10,00,0,79,-0,29,-20,30,0,00,55,30,-10,88,0,00,54,71,-10,88,0,00,54,71
19459,0,49,0,29,-10,00,0,69,-0,10,-7,00,0,00,48,30,-10,29,0,00,53,75,-10,29,0,00,53,75
19476,0,49,0,29,-10,00,0,69,-0,10,-7,00,0,00,48,30,-9,80,0,00,52,93,-9,80,0,00,52,93
19492,0,59,0,39,-9,80,0,79,0,00,0,00,0,00,55,30,-8,33,0,00,53,29,-8,33,0,00,53,29
19509,0,59,0,39,-10,78,0,79,0,00,0,00,0,00,55,30,-7,08,0,00,53,59,-7,08,0,00,53,59
19524,0,59,0,39,-10,78,0,79,0,00,0,00,0,00,55,30,-6,02,0,00,53,85,-6,02,0,00,53,85
19540,0,59,0,39,-10,68,0,79,0,00,0,00,0,00,55,30,-5,12,0,00,54,07,-5,12,0,00,54,07
19556,0,59,0,49,-10,68,0,79,0,10,7,00,0,00,55,30,-3,30,0,00,54,25,-3,30,0,00,54,25
19572,0,59,0,20,-10,09,0,79,-0,19,-13,30,0,00,55,30,-4,80,0,00,54,41,-4,80,0,00,54,41
19589,0,59,0,20,-10,09,0,79,-0,19,-13,30,0,00,55,30,-6,07,0,00,54,54,-6,07,0,00,54,54
19608,0,59,0,20,-10,09,0,79,-0,19,-13,30,0,00,55,30,-7,16,0,00,54,66,-7,16,0,00,54,66
19627,0,59,0,20,-10,09,0,79,-0,19,-13,30,0,00,55,30,-8,08,0,00,54,75,-8,08,0,00,54,75
19645,0,59,0,20,-10,09,0,79,-0,19,-13,30,0,00,55,30,-8,86,0,00,54,83,-8,86,0,00,54,83
19661,0,59,0,10,-10,00,0,79,-0,29,-20,30,0,00,55,30,-10,58,0,00,54,90,-10,58,0,00,54,90
19679,0,59,0,10,-10,00,0,79,-0,29,-20,30,0,00,55,30,-12,04,0,00,54,96,-12,04,0,00,54,96
19695,0,59,0,39,-10,78,0,79,0,00,0,00,0,00,55,30,-10,23,0,00,55,01,-10,23,0,00,55,01
19713,0,59,0,39,-10,78,0,79,0,00,0,00,0,00,55,30,-8,70,0,00,55,06,-8,70,0,00,55,06
19729,0,78,0,10,-9,41,0,98,-0,29,-20,30,0,00,68,60,-10,44,0,00,57,09,-10,44,0,00,57,09
19746,0,78,0,10,-9,60,0,98,-0,29,-20,30,0,00,68,60,-11,92,0,00,58,82,-11,92,0,00,58,82
19762,0,59,0,00,-9,60,0,79,-0,39,-27,30,0,00,55,30,-14,22,0,00,58,29,-14,22,0,00,58,29
19778,0,59,0,00,-10,19,0,79,-0,39,-27,30,0,00,55,30,-16,19,0,00,57,84,-16,19,0,00,57,84
19794,0,59,-0,10,-10,19,0,79,-0,49,-34,30,0,00,55,30,-18,90,0,00,57,46,-18,90,0,00,57,46
19810,1,37,0,00,-9,90,1,57,-0,39,-27,30,0,00,109,90,-20,16,0,00,65,32,-20,16,0,00,65,32
19826,1,37,0,00,-9,90,1,57,-0,39,-27,30,0,00,109,90,-21,23,0,00,72,01,-21,23,0,00,72,01
19843,1,37,0,00,-10,09,1,57,-0,39,-27,30,0,00,109,90,-22,14,0,00,77,69,-22,14,0,00,77,69
19860,0,88,0,00,-10,09,1,08,-0,39,-27,30,0,00,75,60,-22,92,0,00,77,38,-22,92,0,00,77,38
19876,0,88,0,10,-9,80,1,08,-0,29,-20,30,0,00,75,60,-22,52,0,00,77,11,-22,52,0,00,77,11
19892,0,88,0,10,-9,80,1,08,-0,29,-20,30,0,00,75,60,-22,19,0,00,76,89,-22,19,0,00,76,89
19908,0,88,0,59,-10,00,1,08,0,20,14,00,0,00,75,60,-16,76,0,00,76,69,-16,76,0,00,76,69
19924,0,59,0,59,-10,00,0,79,0,20,14,00,0,00,55,30,-12,15,0,00,73,48,-12,15,0,00,73,48
19940,0,20,0,59,-10,58,0,40,0,20,14,00,0,00,28,00,-8,23,0,00,66,66,-8,23,0,00,66,66
19956,0,20,0,78,-10,78,0,40,0,39,27,30,0,00,28,00,-2,90,0,00,60,86,-2,90,0,00,60,86
19973,0,78,0,78,-10,78,0,98,0,39,27,30,0,00,68,60,1,63,0,00,62,02,1,63,0,00,62,02
19990,0,78,0,78,-10,58,0,98,0,39,27,30,0,00,68,60,5,48,0,00,63,01,5,48,0,00,63,01
20006,1,27,0,78,-10,58,1,47,0,39,27,30,0,00,102,90,8,76,0,00,68,99,8,76,0,00,68,99
20022,1,27,0,78,-10,68,1,47,0,39,27,30,0,00,102,90,11,54,0,00,74,08,11,54,0,00,74,08
20038,0,88,0,29,-10,68,1,08,-0,10,-7,00,0,00,75,60,8,76,0,00,74,31,8,76,0,00,74,31
20055,0,88,0,29,-10,68,1,08,-0,10,-7,00,0,00,75,60,6,39,0,00,74,50,6,39,0,00,74,50
20072,0,88,0,29,-10,68,1,08,-0,10,-7,00,0,00,75,60,4,38,0,00,74,67,4,38,0,00,74,67
20089,1,27,-1,57,-7,74,1,47,-1,96,-137,20,0,00,102,90,-16,85,0,00,78,90,-16,85,0,00,78,90
20107,1,27,-1,57,-7,74,1,47,-1,96,-137,20,0,00,102,90,-34,91,0,00,82,50,-34,91,0,00,82,50
20123,1,57,-2,35,-5,19,1,77,-2,74,-191,80,0,00,123,90,-58,44,0,00,88,71,-58,44,0,00,88,71
20139,1,57,-2,35,-8,23,1,77,-2,74,-191,80,0,00,123,90,-78,44,0,00,93,99,-78,44,0,00,90,00
20155,1,57,1,47,-8,23,1,77,1,08,75,60,0,00,123,90,-55,34,0,00,98,48,-55,34,0,00,90,00
20172,1,57,6,66,-20,19,1,77,6,27,438,90,0,00,123,90,18,80,0,00,102,29,18,80,0,00,90,00
20188,-1,96,6,66,-20,19,-1,76,6,27,438,90,0,00,-123,20,81,81,0,00,68,47,81,81,0,00,68,47
20205,-1,96,5,10,-16,07,-1,76,4,71,329,70,0,00,-123,20,119,00,0,00,39,72,90,00,0,00,39,72
20227,1,27,5,10,-16,07,1,47,4,71,329,70,0,00,102,90,150,60,0,00,49,19,90,00,0,00,49,19
20244,1,27,-3,23,-4,80,1,47,-3,62,-253,40,0,00,102,90,90,00,0,00,57,25,90,00,0,00,57,25
20263,1,27,-3,23,-7,15,1,47,-3,62,-253,40,0,00,102,90,38,49,0,00,64,10,38,49,0,00,64,10
20280,-2,35,-0,88,-7,15,-2,15,-1,27,-88,90,0,00,-150,50,19,38,0,00,31,91,19,38,0,00,31,91
20299,-2,35,1,27,-9,41,-2,15,0,88,61,60,0,00,-150,50,25,72,0,00,4,55,25,72,0,00,4,55
20320,-1,96,1,57,-10,98,-1,76,1,18,82,60,0,00,-123,20,34,25,0,00,-14,62,34,25,0,00,-14,62
20337,-0,78,1,57,-10,98,-0,58,1,18,82,60,0,00,-40,60,41,50,0,00,-18,51,41,50,0,00,-18,51
20359,-0,20,1,18,-10,49,0,00,0,79,55,30,0,00,0,00,43,57,0,00,-15,74,43,57,0,00,-15,74
20380,-0,20,1,18,-11,47,0,00,0,79,55,30,0,00,0,00,45,33,0,00,-13,38,45,33,0,00,-13,38
20397,-0,29,1,18,-11,47,-0,09,0,79,55,30,0,00,-6,30,46,83,0,00,-12,31,46,83,0,00,-12,31
20413,-0,29,0,49,-9,51,-0,09,0,10,7,00,0,00,-6,30,40,85,0,00,-11,41,40,85,0,00,-11,41
20429,-0,59,0,49,-9,51,-0,39,0,10,7,00,0,00,-27,30,35,77,0,00,-13,80,35,77,0,00,-13,80
20447,-0,59,0,78,-10,78,-0,39,0,39,27,30,0,00,-27,30,34,50,0,00,-15,82,34,50,0,00,-15,82
20463,-0,78,0,78,-10,78,-0,58,0,39,27,30,0,00,-40,60,33,42,0,00,-19,54,33,42,0,00,-19,54
20478,-0,78,0,78,-10,78,-0,58,0,39,27,30,0,00,-40,60,32,50,0,00,-22,70,32,50,0,00,-22,70
20493,-0,78,0,78,-10,78,-0,58,0,39,27,30,0,00,-40,60,31,72,0,00,-25,38,31,72,0,00,-25,38
20509,-0,59,0,69,-10,68,-0,39,0,30,21,00,0,00,-27,30,30,11,0,00,-25,67,30,11,0,00,-25,67
20525,-0,59,0,69,-10,09,-0,39,0,30,21,00,0,00,-27,30,28,75,0,00,-25,91,28,75,0,00,-25,91
20540,-0,29,0,98,-10,09,-0,09,0,59,41,30,0,00,-6,30,30,63,0,00,-22,97,30,63,0,00,-22,97
20558,-0,29,0,98,-10,68,-0,09,0,59,41,30,0,00,-6,30,32,23,0,00,-20,47,32,23,0,00,-20,47
20575,-0,29,0,88,-10,68,-0,09,0,49,34,30,0,00,-6,30,32,54,0,00,-18,35,32,54,0,00,-18,35
20591,-0,29,0,29,-10,00,-0,09,-0,10,-7,00,0,00,-6,30,26,61,0,00,-16,54,26,61,0,00,-16,54
20607,-0,78,0,29,-10,00,-0,58,-0,10,-7,00,0,00,-40,60,21,57,0,00,-20,15,21,57,0,00,-20,15
20623,-0,78,0,29,-9,90,-0,58,-0,10,-7,00,0,00,-40,60,17,28,0,00,-23,22,17,28,0,00,-23,22
20638,-0,78,0,49,-9,90,-0,58,0,10,7,00,0,00,-40,60,15,74,0,00,-25,82,15,74,0,00,-25,82
20656,-0,78,0,49,-9,90,-0,58,0,10,7,00,0,00,-40,60,14,43,0,00,-28,04,14,43,0,00,-28,04
20672,-0,78,0,49,-9,90,-0,58,0,10,7,00,0,00,-40,60,13,32,0,00,-29,92,13,32,0,00,-29,92
20688,-0,49,0,39,-10,29,-0,29,0,00,0,00,0,00,-20,30,11,32,0,00,-28,48,11,32,0,00,-28,48
20708,-0,49,0,39,-10,00,-0,29,0,00,0,00,0,00,-20,30,9,62,0,00,-27,25,9,62,0,00,-27,25
20724,-0,29,0,78,-10,00,-0,09,0,39,27,30,0,00,-6,30,12,27,0,00,-24,11,12,27,0,00,-24,11
20740,-0,29,0,78,-9,60,-0,09,0,39,27,30,0,00,-6,30,14,53,0,00,-21,44,14,53,0,00,-21,44
20757,-0,49,0,59,-9,60,-0,29,0,20,14,00,0,00,-20,30,14,45,0,00,-21,27,14,45,0,00,-21,27
20773,-0,49,0,39,-10,29,-0,29,0,00,0,00,0,00,-20,30,12,28,0,00,-21,12,12,28,0,00,-21,12
20788,-0,49,0,39,-10,29,-0,29,0,00,0,00,0,00,-20,30,10,44,0,00,-21,00,10,44,0,00,-21,00
20805,-0,49,0,20,-9,51,-0,29,-0,19,-13,30,0,00,-20,30,6,88,0,00,-20,89,6,88,0,00,-20,89
20822,-0,49,0,20,-9,51,-0,29,-0,19,-13,30,0,00,-20,30,3,85,0,00,-20,81,3,85,0,00,-20,81
20839,-0,49,0,49,-9,70,-0,29,0,10,7,00,0,00,-20,30,4,32,0,00,-20,73,4,32,0,00,-20,73
20856,-0,49,0,49,-9,70,-0,29,0,10,7,00,0,00,-20,30,4,72,0,00,-20,67,4,72,0,00,-20,67
20873,-0,49,0,39,-10,29,-0,29,0,00,0,00,0,00,-20,30,4,02,0,00,-20,61,4,02,0,00,-20,61
20891,-0,49,0,39,-10,29,-0,29,0,00,0,00,0,00,-20,30,3,41,0,00,-20,56,3,41,0,00,-20,56
20914,-0,49,0,39,-10,29,-0,29,0,00,0,00,0,00,-20,30,2,90,0,00,-20,52,2,90,0,00,-20,52
20933,-0,49,0,69,-10,49,-0,29,0,30,21,00,0,00,-20,30,5,62,0,00,-20,49,5,62,0,00,-20,49
20953,-0,20,0,88,-10,39,0,00,0,49,34,30,0,00,0,00,9,92,0,00,-17,42,9,92,0,00,-17,42
20978,-0,20,0,29,-10,00,0,00,-0,10,-7,00,0,00,0,00,7,38,0,00,-14,80,7,38,0,00,-14,80
20995,-0,49,0,29,-10,00,-0,29,-0,10,-7,00,0,00,-20,30,5,22,0,00,-15,63,5,22,0,00,-15,63
21016,-0,49,0,69,-10,09,-0,29,0,30,21,00,0,00,-20,30,7,59,0,00,-16,33,7,59,0,00,-16,33
21034,-0,49,0,69,-10,09,-0,29,0,30,21,00,0,00,-20,30,9,60,0,00,-16,93,9,60,0,00,-16,93
21050,-0,49,0,49,-10,49,-0,29,0,10,7,00,0,00,-20,30,9,21,0,00,-17,43,9,21,0,00,-17,43
21071,-0,49,0,49,-9,90,-0,29,0,10,7,00,0,00,-20,30,8,88,0,00,-17,86,8,88,0,00,-17,86
21089,-0,49,0,49,-9,90,-0,29,0,10,7,00,0,00,-20,30,8,60,0,00,-18,23,8,60,0,00,-18,23
21106,-0,49,0,59,-10,00,-0,29,0,20,14,00,0,00,-20,30,9,41,0,00,-18,54,9,41,0,00,-18,54
21122,-0,29,0,59,-10,19,-0,09,0,20,14,00,0,00,-6,30,10,10,0,00,-16,70,10,10,0,00,-16,70
21143,-0,29,0,49,-10,19,-0,09,0,10,7,00,0,00,-6,30,9,63,0,00,-15,14,9,63,0,00,-15,14
21159,-0,29,0,49,-10,00,-0,09,0,10,7,00,0,00,-6,30,9,24,0,00,-13,82,9,24,0,00,-13,82
21176,-0,49,0,59,-10,00,-0,29,0,20,14,00,0,00,-20,30,9,95,0,00,-14,79,9,95,0,00,-14,79
21196,-0,29,0,49,-10,19,-0,09,0,10,7,00,0,00,-6,30,9,51,0,00,-13,52,9,51,0,00,-13,52
21213,-0,29,0,49,-10,19,-0,09,0,10,7,00,0,00,-6,30,9,13,0,00,-12,43,9,13,0,00,-12,43
21232,-0,29,0,39,-10,09,-0,09,0,00,0,00,0,00,-6,30,7,76,0,00,-11,51,7,76,0,00,-11,51
21251,-0,29,0,39,-10,00,-0,09,0,00,0,00,0,00,-6,30,6,60,0,00,-10,73,6,60,0,00,-10,73
21267,-0,29,0,59,-10,00,-0,09,0,20,14,00,0,00,-6,30,7,71,0,00,-10,07,7,71,0,00,-10,07
21288,-0,49,0,49,-10,19,-0,29,0,10,7,00,0,00,-20,30,7,60,0,00,-11,60,7,60,0,00,-11,60
21305,-0,49,0,49,-10,19,-0,29,0,10,7,00,0,00,-20,30,7,51,0,00,-12,91,7,51,0,00,-12,91
21321,-0,49,0,49,-10,19,-0,29,0,10,7,00,0,00,-20,30,7,44,0,00,-14,02,7,44,0,00,-14,02
21340,-0,49,0,69,-10,09,-0,29,0,30,21,00,0,00,-20,30,9,47,0,00,-14,96,9,47,0,00,-14,96
21357,-0,49,0,69,-10,09,-0,29,0,30,21,00,0,00,-20,30,11,20,0,00,-15,76,11,20,0,00,-15,76
21374,-0,49,0,59,-10,00,-0,29,0,20,14,00,0,00,-20,30,11,62,0,00,-16,44,11,62,0,00,-16,44
21390,-0,29,0,59,-10,00,-0,09,0,20,14,00,0,00,-6,30,11,98,0,00,-14,92,11,98,0,00,-14,92
21406,-0,29,0,59,-10,00,-0,09,0,20,14,00,0,00,-6,30,12,28,0,00,-13,63,12,28,0,00,-13,63
21422,-0,29,0,59,-10,00,-0,09,0,20,14,00,0,00,-6,30,12,54,0,00,-12,53,12,54,0,00,-12,53
21439,-0,49,0,59,-10,39,-0,29,0,20,14,00,0,00,-20,30,12,76,0,00,-13,69,12,76,0,00,-13,69
21458,-0,49,0,59,-10,00,-0,29,0,20,14,00,0,00,-20,30,12,94,0,00,-14,68,12,94,0,00,-14,68
21474,-0,59,0,59,-10,00,-0,39,0,20,14,00,0,00,-27,30,13,10,0,00,-16,58,13,10,0,00,-16,58
21495,-0,59,0,49,-9,51,-0,39,0,10,7,00,0,00,-27,30,12,19,0,00,-18,19,12,19,0,00,-18,19
21511,-0,59,0,49,-9,51,-0,39,0,10,7,00,0,00,-27,30,11,41,0,00,-19,55,11,41,0,00,-19,55
21527,-0,59,0,49,-10,49,-0,39,0,10,7,00,0,00,-27,30,10,75,0,00,-20,71,10,75,0,00,-20,71
21543,-0,88,0,49,-10,49,-0,68,0,10,7,00,0,00,-47,60,10,19,0,00,-24,75,10,19,0,00,-24,75
21560,-1,27,0,39,-10,09,-1,07,0,00,0,00,0,00,-74,90,8,66,0,00,-32,27,8,66,0,00,-32,27
21576,-1,27,0,78,-10,58,-1,07,0,39,27,30,0,00,-74,90,11,45,0,00,-38,66,11,45,0,00,-38,66
21594,-1,27,0,78,-10,58,-1,07,0,39,27,30,0,00,-74,90,13,83,0,00,-44,10,13,83,0,00,-44,10
21610,-1,27,0,78,-10,00,-1,07,0,39,27,30,0,00,-74,90,15,85,0,00,-48,72,15,85,0,00,-48,72
21625,-1,57,0,59,-10,00,-1,37,0,20,14,00,0,00,-95,90,15,57,0,00,-55,80,15,57,0,00,-55,80
21641,-1,57,0,59,-9,70,-1,37,0,20,14,00,0,00,-95,90,15,34,0,00,-61,81,15,34,0,00,-61,81
21656,-1,57,0,49,-9,70,-1,37,0,10,7,00,0,00,-95,90,14,09,0,00,-66,93,14,09,0,00,-66,93
21674,-1,57,0,69,-10,09,-1,37,0,30,21,00,0,00,-95,90,15,12,0,00,-71,27,15,12,0,00,-71,27
21690,-1,67,0,69,-10,39,-1,47,0,30,21,00,0,00,-102,90,16,01,0,00,-76,02,16,01,0,00,-76,02
21706,-2,16,0,59,-10,39,-1,96,0,20,14,00,0,00,-137,20,15,70,0,00,-85,19,15,70,0,00,-85,19
21723,-2,16,0,59,-10,39,-1,96,0,20,14,00,0,00,-137,20,15,45,0,00,-92,99,15,45,0,00,-90,00
21743,-2,16,0,59,-10,00,-1,96,0,20,14,00,0,00,-137,20,15,23,0,00,-99,63,15,23,0,00,-90,00
21762,-2,16,0,59,-10,00,-1,96,0,20,14,00,0,00,-137,20,15,05,0,00,-105,26,15,05,0,00,-90,00
21780,-2,16,0,59,-10,00,-1,96,0,20,14,00,0,00,-137,20,14,89,0,00,-110,05,14,89,0,00,-90,00
21796,-2,16,0,29,-10,00,-1,96,-0,10,-7,00,0,00,-137,20,11,61,0,00,-114,12,11,61,0,00,-90,00
21813,-2,16,0,29,-10,00,-1,96,-0,10,-7,00,0,00,-137,20,8,82,0,00,-117,59,8,82,0,00,-90,00
21828,-2,16,0,59,-10,00,-1,96,0,20,14,00,0,00,-137,20,9,59,0,00,-120,53,9,59,0,00,-90,00
21847,-2,16,0,59,-10,00,-1,96,0,20,14,00,0,00,-137,20,10,25,0,00,-123,03,10,25,0,00,-90,00
21863,-2,16,0,59,-9,80,-1,96,0,20,14,00,0,00,-137,20,10,82,0,00,-125,15,10,82,0,00,-90,00
21879,-2,16,0,59,-9,80,-1,96,0,20,14,00,0,00,-137,20,11,29,0,00,-126,96,11,29,0,00,-90,00
21895,-2,16,0,59,-9,80,-1,96,0,20,14,00,0,00,-137,20,11,70,0,00,-128,50,11,70,0,00,-90,00
21911,-2,16,0,69,-10,09,-1,96,0,30,21,00,0,00,-137,20,13,09,0,00,-129,80,13,09,0,00,-90,00
21927,-2,16,0,69,-10,09,-1,96,0,30,21,00,0,00,-137,20,14,28,0,00,-130,91,14,28,0,00,-90,00
21943,-2,16,0,29,-9,41,-1,96,-0,10,-7,00,0,00,-137,20,11,09,0,00,-131,86,11,09,0,00,-90,00
21958,-2,16,0,29,-9,41,-1,96,-0,10,-7,00,0,00,-137,20,8,38,0,00,-132,66,8,38,0,00,-90,00
21973,-2,16,0,29,-9,41,-1,96,-0,10,-7,00,0,00,-137,20,6,07,0,00,-133,34,6,07,0,00,-90,00
21991,-2,16,0,29,-10,19,-1,96,-0,10,-7,00,0,00,-137,20,4,11,0,00,-133,92,4,11,0,00,-90,00
22007,-2,16,0,49,-10,19,-1,96,0,10,7,00,0,00,-137,20,4,54,0,00,-134,41,4,54,0,00,-90,00
22023,-2,16,0,49,-10,19,-1,96,0,10,7,00,0,00,-137,20,4,91,0,00,-134,83,4,91,0,00,-90,00
22039,-1,96,0,39,-9,80,-1,76,0,00,0,00,0,00,-123,20,4,17,0,00,-133,08,4,17,0,00,-90,00
22055,-1,96,0,39,-9,80,-1,76,0,00,0,00,0,00,-123,20,3,55,0,00,-131,60,3,55,0,00,-90,00
22071,-1,67,0,20,-9,90,-1,47,-0,19,-13,30,0,00,-102,90,1,02,0,00,-127,30,1,02,0,00,-90,00
22089,-1,67,0,20,-10,00,-1,47,-0,19,-13,30,0,00,-102,90,-1,13,0,00,-123,64,-1,13,0,00,-90,00
22105,-1,67,0,29,-10,00,-1,47,-0,10,-7,00,0,00,-102,90,-2,01,0,00,-120,53,-2,01,0,00,-90,00
22121,-1,67,0,39,-10,09,-1,47,0,00,0,00,0,00,-102,90,-1,71,0,00,-117,88,-1,71,0,00,-90,00
22138,-1,67,0,39,-10,09,-1,47,0,00,0,00,0,00,-102,90,-1,45,0,00,-115,64,-1,45,0,00,-90,00
22154,-1,67,0,49,-9,70,-1,47,0,10,7,00,0,00,-102,90,-0,18,0,00,-113,72,-0,18,0,00,-90,00
22171,-1,37,0,49,-9,70,-1,17,0,10,7,00,0,00,-81,90,0,89,0,00,-108,95,0,89,0,00,-90,00
22189,-1,37,0,49,-9,70,-1,17,0,10,7,00,0,00,-81,90,1,81,0,00,-104,89,1,81,0,00,-90,00
22211,-1,37,0,69,-10,09,-1,17,0,30,21,00,0,00,-81,90,4,69,0,00,-101,44,4,69,0,00,-90,00
22231,-1,08,0,69,-10,09,-0,88,0,30,21,00,0,00,-61,60,7,14,0,00,-95,47,7,14,0,00,-90,00
22246,-1,08,0,78,-10,29,-0,88,0,39,27,30,0,00,-61,60,10,16,0,00,-90,39,10,16,0,00,-90,00
22263,-1,08,0,78,-10,29,-0,88,0,39,27,30,0,00,-61,60,12,73,0,00,-86,07,12,73,0,00,-86,07
22278,-0,88,0,29,-10,00,-0,68,-0,10,-7,00,0,00,-47,60,9,77,0,00,-80,30,9,77,0,00,-80,30
22293,-0,88,0,49,-9,90,-0,68,0,10,7,00,0,00,-47,60,9,36,0,00,-75,39,9,36,0,00,-75,39
22309,-0,88,0,49,-9,90,-0,68,0,10,7,00,0,00,-47,60,9,00,0,00,-71,23,9,00,0,00,-71,23
22325,-0,88,0,49,-9,90,-0,68,0,10,7,00,0,00,-47,60,8,70,0,00,-67,68,8,70,0,00,-67,68
22341,-0,78,0,49,-10,19,-0,58,0,10,7,00,0,00,-40,60,8,45,0,00,-63,62,8,45,0,00,-63,62
22359,-0,78,0,69,-9,70,-0,58,0,30,21,00,0,00,-40,60,10,33,0,00,-60,17,10,33,0,00,-60,17
22376,-0,29,0,69,-9,70,-0,09,0,30,21,00,0,00,-6,30,11,93,0,00,-52,09,11,93,0,00,-52,09
22392,-0,49,0,88,-10,19,-0,29,0,49,34,30,0,00,-20,30,15,29,0,00,-47,32,15,29,0,00,-47,32
22410,-0,49,0,88,-10,19,-0,29,0,49,34,30,0,00,-20,30,18,14,0,00,-43,27,18,14,0,00,-43,27
22426,-0,49,0,88,-10,68,-0,29,0,49,34,30,0,00,-20,30,20,56,0,00,-39,82,20,56,0,00,-39,82
22444,-0,20,0,88,-10,68,0,00,0,49,34,30,0,00,0,00,22,62,0,00,-33,85,22,62,0,00,-33,85
22463,0,00,1,08,-10,19,0,20,0,69,48,30,0,00,14,00,26,47,0,00,-26,67,26,47,0,00,-26,67
22487,0,00,0,78,-9,60,0,20,0,39,27,30,0,00,14,00,26,60,0,00,-20,57,26,60,0,00,-20,57
22512,0,20,0,78,-10,39,0,40,0,39,27,30,0,00,28,00,26,70,0,00,-13,28,26,70,0,00,-13,28
22530,0,49,0,88,-10,39,0,69,0,49,34,30,0,00,48,30,27,84,0,00,-4,05,27,84,0,00,-4,05
22547,0,49,1,08,-10,39,0,69,0,69,48,30,0,00,48,30,30,91,0,00,3,81,30,91,0,00,3,81
22565,0,59,1,08,-10,39,0,79,0,69,48,30,0,00,55,30,33,52,0,00,11,53,33,52,0,00,11,53
22580,0,59,0,78,-9,80,0,79,0,39,27,30,0,00,55,30,32,59,0,00,18,10,32,59,0,00,18,10
22595,0,59,0,78,-9,80,0,79,0,39,27,30,0,00,55,30,31,79,0,00,23,68,31,79,0,00,23,68
22614,0,59,0,78,-9,80,0,79,0,39,27,30,0,00,55,30,31,12,0,00,28,42,31,12,0,00,28,42
22632,0,59,0,78,-10,68,0,79,0,39,27,30,0,00,55,30,30,55,0,00,32,45,30,55,0,00,32,45
22647,0,78,1,18,-10,68,0,98,0,79,55,30,0,00,68,60,34,26,0,00,37,87,34,26,0,00,37,87
22666,1,27,0,88,-10,19,1,47,0,49,34,30,0,00,102,90,34,30,0,00,47,63,34,30,0,00,47,63
22684,1,27,0,88,-10,19,1,47,0,49,34,30,0,00,102,90,34,30,0,00,55,92,34,30,0,00,55,92
22703,0,88,0,78,-10,00,1,08,0,39,27,30,0,00,75,60,33,25,0,00,58,87,33,25,0,00,58,87
22721,0,88,0,78,-10,29,1,08,0,39,27,30,0,00,75,60,32,36,0,00,61,38,32,36,0,00,61,38
22738,1,27,0,78,-10,29,1,47,0,39,27,30,0,00,102,90,31,60,0,00,67,61,31,60,0,00,67,61
22756,1,37,0,69,-10,09,1,57,0,30,21,00,0,00,109,90,30,01,0,00,73,95,30,01,0,00,73,95
22773,1,37,0,69,-10,09,1,57,0,30,21,00,0,00,109,90,28,66,0,00,79,34,28,66,0,00,79,34
22789,1,57,0,69,-10,09,1,77,0,30,21,00,0,00,123,90,27,51,0,00,86,03,27,51,0,00,86,03
22805,1,57,0,59,-9,80,1,77,0,20,14,00,0,00,123,90,25,48,0,00,91,71,25,48,0,00,90,00
22822,1,37,0,59,-9,80,1,57,0,20,14,00,0,00,109,90,23,76,0,00,94,44,23,76,0,00,90,00
22840,1,37,0,59,-9,70,1,57,0,20,14,00,0,00,109,90,22,30,0,00,96,76,22,30,0,00,90,00
22856,1,37,0,49,-9,70,1,57,0,10,7,00,0,00,109,90,20,00,0,00,98,73,20,00,0,00,90,00
22872,1,67,0,69,-9,90,1,87,0,30,21,00,0,00,130,90,20,15,0,00,103,55,20,15,0,00,90,00
22888,1,67,0,69,-9,80,1,87,0,30,21,00,0,00,130,90,20,28,0,00,107,66,20,28,0,00,90,00
22905,1,57,0,78,-9,80,1,77,0,39,27,30,0,00,123,90,21,33,0,00,110,09,21,33,0,00,90,00
22923,1,57,0,78,-9,90,1,77,0,39,27,30,0,00,123,90,22,23,0,00,112,16,22,23,0,00,90,00
22939,1,27,0,69,-9,90,1,47,0,30,21,00,0,00,102,90,22,04,0,00,110,77,22,04,0,00,90,00
22955,1,27,0,69,-9,90,1,47,0,30,21,00,0,00,102,90,21,89,0,00,109,59,21,89,0,00,90,00
22972,1,37,0,59,-10,39,1,57,0,20,14,00,0,00,109,90,20,70,0,00,109,64,20,70,0,00,90,00
22989,1,37,0,59,-10,29,1,57,0,20,14,00,0,00,109,90,19,70,0,00,109,68,19,70,0,00,90,00
23004,1,37,0,78,-10,29,1,57,0,39,27,30,0,00,109,90,20,84,0,00,109,71,20,84,0,00,90,00
23021,1,37,0,78,-10,29,1,57,0,39,27,30,0,00,109,90,21,81,0,00,109,74,21,81,0,00,90,00
23038,1,37,0,78,-10,29,1,57,0,39,27,30,0,00,109,90,22,63,0,00,109,76,22,63,0,00,90,00
23054,1,27,0,59,-10,00,1,47,0,20,14,00,0,00,102,90,21,34,0,00,108,73,21,34,0,00,90,00
23071,1,27,0,59,-10,00,1,47,0,20,14,00,0,00,102,90,20,24,0,00,107,86,20,24,0,00,90,00
23087,1,27,0,69,-9,90,1,47,0,30,21,00,0,00,102,90,20,35,0,00,107,12,20,35,0,00,90,00
23103,1,27,0,69,-9,90,1,47,0,30,21,00,0,00,102,90,20,45,0,00,106,48,20,45,0,00,90,00
23119,1,08,0,88,-9,90,1,28,0,49,34,30,0,00,89,60,22,53,0,00,103,95,22,53,0,00,90,00
23135,1,08,0,88,-9,90,1,28,0,49,34,30,0,00,89,60,24,29,0,00,101,80,24,29,0,00,90,00
23151,0,88,0,88,-10,39,1,08,0,49,34,30,0,00,75,60,25,79,0,00,97,87,25,79,0,00,90,00
23167,0,88,0,88,-10,39,1,08,0,49,34,30,0,00,75,60,27,07,0,00,94,53,27,07,0,00,90,00
23183,0,78,0,59,-9,80,0,98,0,20,14,00,0,00,68,60,25,11,0,00,90,64,25,11,0,00,90,00
23199,0,78,0,59,-9,80,0,98,0,20,14,00,0,00,68,60,23,44,0,00,87,33,23,44,0,00,87,33
23216,0,78,0,59,-9,80,0,98,0,20,14,00,0,00,68,60,22,03,0,00,84,52,22,03,0,00,84,52
23238,0,49,0,98,-10,29,0,69,0,59,41,30,0,00,48,30,24,92,0,00,79,09,24,92,0,00,79,09
23255,0,49,0,78,-10,29,0,69,0,39,27,30,0,00,48,30,25,27,0,00,74,47,25,27,0,00,74,47
23272,0,49,0,78,-10,29,0,69,0,39,27,30,0,00,48,30,25,58,0,00,70,55,25,58,0,00,70,55
23291,0,49,0,78,-10,00,0,69,0,39,27,30,0,00,48,30,25,84,0,00,67,21,25,84,0,00,67,21
23307,0,59,0,78,-10,00,0,79,0,39,27,30,0,00,55,30,26,06,0,00,65,42,26,06,0,00,65,42
23324,0,59,0,59,-9,80,0,79,0,20,14,00,0,00,55,30,24,25,0,00,63,90,24,25,0,00,63,90
23340,0,59,0,59,-9,80,0,79,0,20,14,00,0,00,55,30,22,71,0,00,62,61,22,71,0,00,62,61
23357,0,59,0,49,-10,19,0,79,0,10,7,00,0,00,55,30,20,35,0,00,61,52,20,35,0,00,61,52
23373,0,29,0,49,-10,19,0,49,0,10,7,00,0,00,34,30,18,35,0,00,57,43,18,35,0,00,57,43
23389,0,29,0,59,-10,39,0,49,0,20,14,00,0,00,34,30,17,70,0,00,53,96,17,70,0,00,53,96
23404,0,29,0,59,-10,39,0,49,0,20,14,00,0,00,34,30,17,14,0,00,51,01,17,14,0,00,51,01
23421,0,29,0,78,-10,00,0,49,0,39,27,30,0,00,34,30,18,67,0,00,48,51,18,67,0,00,48,51
23438,0,29,0,78,-10,00,0,49,0,39,27,30,0,00,34,30,19,96,0,00,46,38,19,96,0,00,46,38
23456,0,29,0,78,-10,00,0,49,0,39,27,30,0,00,34,30,21,06,0,00,44,56,21,06,0,00,44,56
23480,0,49,0,88,-10,19,0,69,0,49,34,30,0,00,48,30,23,05,0,00,45,12,23,05,0,00,45,12
23500,0,49,0,49,-10,19,0,69,0,10,7,00,0,00,48,30,20,64,0,00,45,60,20,64,0,00,45,60
23520,0,00,0,49,-10,19,0,20,0,10,7,00,0,00,14,00,18,59,0,00,40,86,18,59,0,00,40,86
23545,-0,20,0,39,-10,09,0,00,0,00,0,00,0,00,0,00,15,81,0,00,34,73,15,81,0,00,34,73
23563,-0,20,0,39,-10,00,0,00,0,00,0,00,0,00,0,00,13,43,0,00,29,52,13,43,0,00,29,52
23583,0,00,0,59,-10,00,0,20,0,20,14,00,0,00,14,00,13,52,0,00,27,19,13,52,0,00,27,19
23599,0,20,0,59,-10,00,0,40,0,20,14,00,0,00,28,00,13,59,0,00,27,31,13,59,0,00,27,31
23615,0,20,0,59,-10,00,0,40,0,20,14,00,0,00,28,00,13,65,0,00,27,42,13,65,0,00,27,42
23631,0,20,0,78,-10,29,0,40,0,39,27,30,0,00,28,00,15,70,0,00,27,50,15,70,0,00,27,50
23647,0,20,0,78,-10,29,0,40,0,39,27,30,0,00,28,00,17,44,0,00,27,58,17,44,0,00,27,58
23664,0,20,0,69,-10,09,0,40,0,30,21,00,0,00,28,00,17,97,0,00,27,64,17,97,0,00,27,64
23680,0,20,0,69,-10,09,0,40,0,30,21,00,0,00,28,00,18,43,0,00,27,70,18,43,0,00,27,70
23696,0,00,0,69,-10,09,0,20,0,30,21,00,0,00,14,00,18,81,0,00,25,64,18,81,0,00,25,64
23712,-0,20,0,49,-10,19,0,00,0,10,7,00,0,00,0,00,17,04,0,00,21,80,17,04,0,00,21,80
23729,-0,20,0,49,-10,19,0,00,0,10,7,00,0,00,0,00,15,54,0,00,18,53,15,54,0,00,18,53
23755,0,20,0,69,-10,09,0,40,0,30,21,00,0,00,28,00,16,36,0,00,19,95,16,36,0,00,19,95
23772,0,20,0,69,-10,39,0,40,0,30,21,00,0,00,28,00,17,05,0,00,21,16,17,05,0,00,21,16
23788,0,00,0,59,-10,39,0,20,0,20,14,00,0,00,14,00,16,59,0,00,20,08,16,59,0,00,20,08
23805,0,00,0,39,-9,80,0,20,0,00,0,00,0,00,14,00,14,10,0,00,19,17,14,10,0,00,19,17
23822,0,00,0,39,-10,19,0,20,0,00,0,00,0,00,14,00,11,99,0,00,18,39,11,99,0,00,18,39
23838,0,00,0,49,-10,19,0,20,0,10,7,00,0,00,14,00,11,24,0,00,17,73,11,24,0,00,17,73
23855,0,00,0,49,-10,19,0,20,0,10,7,00,0,00,14,00,10,60,0,00,17,17,10,60,0,00,17,17
23872,0,00,0,49,-10,19,0,20,0,10,7,00,0,00,14,00,10,06,0,00,16,70,10,06,0,00,16,70
23889,0,00,0,49,-10,19,0,20,0,10,7,00,0,00,14,00,9,60,0,00,16,29,9,60,0,00,16,29
23905,0,00,0,49,-10,49,0,20,0,10,7,00,0,00,14,00,9,21,0,00,15,95,9,21,0,00,15,95
23922,0,00,0,49,-10,19,0,20,0,10,7,00,0,00,14,00,8,88,0,00,15,66,8,88,0,00,15,66
23938,0,00,0,49,-10,19,0,20,0,10,7,00,0,00,14,00,8,60,0,00,15,41,8,60,0,00,15,41
23955,0,00,0,39,-10,09,0,20,0,00,0,00,0,00,14,00,7,31,0,00,15,20,7,31,0,00,15,20
23972,0,00,0,39,-10,09,0,20,0,00,0,00,0,00,14,00,6,21,0,00,15,02,6,21,0,00,15,02
23988,-0,20,0,20,-10,29,0,00,-0,19,-13,30,0,00,0,00,3,29,0,00,12,77,3,29,0,00,12,77
24005,-0,20,0,20,-10,29,0,00,-0,19,-13,30,0,00,0,00,0,80,0,00,10,85,0,80,0,00,10,85
24022,-0,20,0,29,-10,19,0,00,-0,10,-7,00,0,00,0,00,-0,37,0,00,9,22,-0,37,0,00,9,22
24039,-0,20,0,00,-9,90,0,00,-0,39,-27,30,0,00,0,00,-4,41,0,00,7,84,-4,41,0,00,7,84
24059,-0,20,0,00,-9,90,0,00,-0,39,-27,30,0,00,0,00,-7,84,0,00,6,66,-7,84,0,00,6,66
24075,-0,20,0,20,-10,29,0,00,-0,19,-13,30,0,00,0,00,-8,66,0,00,5,66,-8,66,0,00,5,66
24091,-0,20,0,20,-10,58,0,00,-0,19,-13,30,0,00,0,00,-9,36,0,00,4,81,-9,36,0,00,4,81
24107,0,00,0,10,-10,58,0,20,-0,29,-20,30,0,00,14,00,-11,00,0,00,6,19,-11,00,0,00,6,19
24123,0,00,0,10,-10,58,0,20,-0,29,-20,30,0,00,14,00,-12,39,0,00,7,36,-12,39,0,00,7,36
24141,-0,20,-0,20,-9,60,0,00,-0,59,-41,30,0,00,0,00,-16,73,0,00,6,26,-16,73,0,00,6,26
24160,-0,20,0,29,-10,19,0,00,-0,10,-7,00,0,00,0,00,-15,27,0,00,5,32,-15,27,0,00,5,32
24177,-0,20,0,29,-10,19,0,00,-0,10,-7,00,0,00,0,00,-14,03,0,00,4,52,-14,03,0,00,4,52
24193,-0,20,0,10,-10,19,0,00,-0,29,-20,30,0,00,0,00,-14,97,0,00,3,84,-14,97,0,00,3,84
24210,-0,20,0,10,-10,00,0,00,-0,29,-20,30,0,00,0,00,-15,77,0,00,3,27,-15,77,0,00,3,27
24226,0,00,0,10,-10,00,0,20,-0,29,-20,30,0,00,14,00,-16,45,0,00,4,88,-16,45,0,00,4,88
24243,0,00,0,10,-10,00,0,20,-0,29,-20,30,0,00,14,00,-17,03,0,00,6,25,-17,03,0,00,6,25
24262,-0,20,0,10,-10,19,0,00,-0,29,-20,30,0,00,0,00,-17,52,0,00,5,31,-17,52,0,00,5,31
24278,-0,20,0,10,-10,19,0,00,-0,29,-20,30,0,00,0,00,-17,94,0,00,4,51,-17,94,0,00,4,51
24294,-0,20,0,10,-10,19,0,00,-0,29,-20,30,0,00,0,00,-18,29,0,00,3,84,-18,29,0,00,3,84
24311,-0,20,0,10,-10,09,0,00,-0,29,-20,30,0,00,0,00,-18,59,0,00,3,26,-18,59,0,00,3,26
24327,-0,20,0,20,-10,09,0,00,-0,19,-13,30,0,00,0,00,-17,80,0,00,2,77,-17,80,0,00,2,77
24344,-0,20,0,29,-10,00,0,00,-0,10,-7,00,0,00,0,00,-16,18,0,00,2,36,-16,18,0,00,2,36
24363,-0,20,0,29,-10,00,0,00,-0,10,-7,00,0,00,0,00,-14,80,0,00,2,00,-14,80,0,00,2,00
24383,-0,20,0,59,-10,58,0,00,0,20,14,00,0,00,0,00,-10,48,0,00,1,70,-10,48,0,00,1,70
24400,-0,20,0,39,-10,29,0,00,0,00,0,00,0,00,0,00,-8,91,0,00,1,45,-8,91,0,00,1,45
24420,-0,20,0,39,-10,29,0,00,0,00,0,00,0,00,0,00,-7,57,0,00,1,23,-7,57,0,00,1,23
24437,-0,20,0,20,-9,90,0,00,-0,19,-13,30,0,00,0,00,-8,43,0,00,1,05,-8,43,0,00,1,05
24458,-0,20,0,39,-10,09,0,00,0,00,0,00,0,00,0,00,-7,17,0,00,0,89,-7,17,0,00,0,89
24474,-0,20,0,39,-10,09,0,00,0,00,0,00,0,00,0,00,-6,09,0,00,0,76,-6,09,0,00,0,76
24490,-0,20,0,39,-10,29,0,00,0,00,0,00,0,00,0,00,-5,18,0,00,0,64,-5,18,0,00,0,64
24506,-0,20,0,39,-10,29,0,00,0,00,0,00,0,00,0,00,-4,40,0,00,0,55,-4,40,0,00,0,55
24522,-0,20,0,39,-10,09,0,00,0,00,0,00,0,00,0,00,-3,74,0,00,0,46,-3,74,0,00,0,46
24538,-0,20,0,39,-10,09,0,00,0,00,0,00,0,00,0,00,-3,18,0,00,0,39,-3,18,0,00,0,39
24555,-0,20,0,29,-10,19,0,00,-0,10,-7,00,0,00,0,00,-3,75,0,00,0,34,-3,75,0,00,0,34
24572,-0,20,0,29,-10,09,0,00,-0,10,-7,00,0,00,0,00,-4,24,0,00,0,28,-4,24,0,00,0,28
24588,-0,20,0,39,-10,09,0,00,0,00,0,00,0,00,0,00,-3,60,0,00,0,24,-3,60,0,00,0,24
24606,-0,20,0,39,-10,09,0,00,0,00,0,00,0,00,0,00,-3,06,0,00,0,21,-3,06,0,00,0,21
24625,-0,20,0,39,-10,29,0,00,0,00,0,00,0,00,0,00,-2,60,0,00,0,17,-2,60,0,00,0,17
24643,-0,20,0,39,-10,09,0,00,0,00,0,00,0,00,0,00,-2,21,0,00,0,15,-2,21,0,00,0,15
24662,-0,20,0,39,-10,29,0,00,0,00,0,00,0,00,0,00,-1,88,0,00,0,13,-1,88,0,00,0,13
24677,-0,20,0,39,-10,29,0,00,0,00,0,00,0,00,0,00,-1,60,0,00,0,11,-1,60,0,00,0,11
24693,-0,20,0,39,-10,29,0,00,0,00,0,00,0,00,0,00,-1,36,0,00,0,09,-1,36,0,00,0,09
24709,-0,20,0,39,-10,29,0,00,0,00,0,00,0,00,0,00,-1,16,0,00,0,08,-1,16,0,00,0,08
24726,-0,20,0,39,-10,29,0,00,0,00,0,00,0,00,0,00,-0,98,0,00,0,07,-0,98,0,00,0,07
24742,-0,20,0,29,-10,00,0,00,-0,10,-7,00,0,00,0,00,-1,88,0,00,0,06,-1,88,0,00,0,06
24758,-0,20,0,29,-10,00,0,00,-0,10,-7,00,0,00,0,00,-2,65,0,00,0,05,-2,65,0,00,0,05
24774,-0,29,0,29,-10,00,-0,09,-0,10,-7,00,0,00,-6,30,-3,30,0,00,-0,90,-3,30,0,00,-0,90
24790,-0,20,0,49,-10,19,0,00,0,10,7,00,0,00,0,00,-1,76,0,00,-0,77,-1,76,0,00,-0,77
24806,-0,20,0,49,-10,19,0,00,0,10,7,00,0,00,0,00,-0,44,0,00,-0,65,-0,44,0,00,-0,65
24822,-0,20,0,39,-10,09,0,00,0,00,0,00,0,00,0,00,-0,38,0,00,-0,56,-0,38,0,00,-0,56
24843,-0,20,0,39,-10,09,0,00,0,00,0,00,0,00,0,00,-0,32,0,00,-0,47,-0,32,0,00,-0,47
24861,-0,29,0,39,-10,09,-0,09,0,00,0,00,0,00,-6,30,-0,27,0,00,-1,35,-0,27,0,00,-1,35
24877,-0,29,0,29,-10,00,-0,09,-0,10,-7,00,0,00,-6,30,-1,28,0,00,-2,09,-1,28,0,00,-2,09
24894,-0,29,0,29,-10,00,-0,09,-0,10,-7,00,0,00,-6,30,-2,14,0,00,-2,72,-2,14,0,00,-2,72
24910,-0,29,0,29,-9,80,-0,09,-0,10,-7,00,0,00,-6,30,-2,87,0,00,-3,26,-2,87,0,00,-3,26
24926,-0,29,0,39,-9,80,-0,09,0,00,0,00,0,00,-6,30,-2,44,0,00,-3,71,-2,44,0,00,-3,71
24942,-0,49,0,29,-10,19,-0,29,-0,10,-7,00,0,00,-20,30,-3,12,0,00,-6,20,-3,12,0,00,-6,20
24957,-0,49,0,29,-10,19,-0,29,-0,10,-7,00,0,00,-20,30,-3,70,0,00,-8,32,-3,70,0,00,-8,32
24973,-0,59,0,39,-10,09,-0,39,0,00,0,00,0,00,-27,30,-3,15,0,00,-11,16,-3,15,0,00,-11,16
24989,-0,59,0,39,-10,09,-0,39,0,00,0,00,0,00,-27,30,-2,68,0,00,-13,58,-2,68,0,00,-13,58
25006,-0,59,0,49,-9,90,-0,39,0,10,7,00,0,00,-27,30,-1,22,0,00,-15,64,-1,22,0,00,-15,64
25022,-0,59,0,49,-9,90,-0,39,0,10,7,00,0,00,-27,30,0,01,0,00,-17,39,0,01,0,00,-17,39
25038,-0,78,0,59,-10,39,-0,58,0,20,14,00,0,00,-40,60,2,11,0,00,-20,87,2,11,0,00,-20,87
25055,-0,78,0,69,-9,90,-0,58,0,30,21,00,0,00,-40,60,4,94,0,00,-23,83,4,94,0,00,-23,83
25071,-0,78,0,69,-9,90,-0,58,0,30,21,00,0,00,-40,60,7,35,0,00,-26,35,7,35,0,00,-26,35
25088,-0,78,0,69,-10,09,-0,58,0,30,21,00,0,00,-40,60,9,40,0,00,-28,48,9,40,0,00,-28,48
25106,-0,88,0,39,-10,09,-0,68,0,00,0,00,0,00,-47,60,7,99,0,00,-31,35,7,99,0,00,-31,35
25122,-0,88,0,39,-10,09,-0,68,0,00,0,00,0,00,-47,60,6,79,0,00,-33,79,6,79,0,00,-33,79
25138,-0,88,0,39,-10,09,-0,68,0,00,0,00,0,00,-47,60,5,77,0,00,-35,86,5,77,0,00,-35,86
25155,-0,88,0,78,-10,29,-0,68,0,39,27,30,0,00,-47,60,9,00,0,00,-37,62,9,00,0,00,-37,62
25171,-0,88,0,78,-10,39,-0,68,0,39,27,30,0,00,-47,60,11,75,0,00,-39,12,11,75,0,00,-39,12
25188,-1,08,0,59,-10,39,-0,88,0,20,14,00,0,00,-61,60,12,08,0,00,-42,49,12,08,0,00,-42,49
25205,-1,08,0,59,-10,39,-0,88,0,20,14,00,0,00,-61,60,12,37,0,00,-45,36,12,37,0,00,-45,36
25221,-1,08,0,59,-10,39,-0,88,0,20,14,00,0,00,-61,60,12,62,0,00,-47,79,12,62,0,00,-47,79
25237,-1,27,0,59,-9,80,-1,07,0,20,14,00,0,00,-74,90,12,82,0,00,-51,86,12,82,0,00,-51,86
25254,-1,27,0,59,-9,80,-1,07,0,20,14,00,0,00,-74,90,13,00,0,00,-55,32,13,00,0,00,-55,32
25271,-1,27,0,59,-10,19,-1,07,0,20,14,00,0,00,-74,90,13,15,0,00,-58,25,13,15,0,00,-58,25
25288,-1,27,0,49,-10,19,-1,07,0,10,7,00,0,00,-74,90,12,23,0,00,-60,75,12,23,0,00,-60,75
25305,-1,08,0,59,-10,39,-0,88,0,20,14,00,0,00,-61,60,12,49,0,00,-60,88,12,49,0,00,-60,88
25323,-1,08,0,59,-10,39,-0,88,0,20,14,00,0,00,-61,60,12,72,0,00,-60,99,12,72,0,00,-60,99
25344,-1,27,0,49,-9,90,-1,07,0,10,7,00,0,00,-74,90,11,86,0,00,-63,07,11,86,0,00,-63,07
25361,-1,27,0,39,-10,09,-1,07,0,00,0,00,0,00,-74,90,10,08,0,00,-64,85,10,08,0,00,-64,85
25377,-1,27,0,39,-10,09,-1,07,0,00,0,00,0,00,-74,90,8,57,0,00,-66,36,8,57,0,00,-66,36
25392,-1,27,0,39,-10,00,-1,07,0,00,0,00,0,00,-74,90,7,28,0,00,-67,64,7,28,0,00,-67,64
25408,-1,27,0,29,-10,00,-1,07,-0,10,-7,00,0,00,-74,90,5,14,0,00,-68,73,5,14,0,00,-68,73
25426,-1,08,0,49,-10,19,-0,88,0,10,7,00,0,00,-61,60,5,42,0,00,-67,66,5,42,0,00,-67,66
25442,-1,08,0,49,-10,29,-0,88,0,10,7,00,0,00,-61,60,5,66,0,00,-66,75,5,66,0,00,-66,75
25460,-1,08,0,39,-10,29,-0,88,0,00,0,00,0,00,-61,60,4,81,0,00,-65,98,4,81,0,00,-65,98
25476,-1,08,0,39,-10,29,-0,88,0,00,0,00,0,00,-61,60,4,09,0,00,-65,32,4,09,0,00,-65,32
25492,-1,08,0,69,-10,09,-0,88,0,30,21,00,0,00,-61,60,6,62,0,00,-64,76,6,62,0,00,-64,76
25509,-1,08,0,69,-9,90,-0,88,0,30,21,00,0,00,-61,60,8,78,0,00,-64,29,8,78,0,00,-64,29
25525,-1,08,0,49,-9,90,-0,88,0,10,7,00,0,00,-61,60,8,51,0,00,-63,88,8,51,0,00,-63,88
25541,-1,08,0,49,-10,00,-0,88,0,10,7,00,0,00,-61,60,8,29,0,00,-63,54,8,29,0,00,-63,54
25556,-1,08,0,29,-10,00,-0,88,-0,10,-7,00,0,00,-61,60,5,99,0,00,-63,25,5,99,0,00,-63,25
25573,-1,08,0,29,-10,00,-0,88,-0,10,-7,00,0,00,-61,60,4,04,0,00,-63,00,4,04,0,00,-63,00
25593,-1,08,0,29,-10,00,-0,88,-0,10,-7,00,0,00,-61,60,2,39,0,00,-62,79,2,39,0,00,-62,79
25609,-0,78,0,49,-9,90,-0,58,0,10,7,00,0,00,-40,60,3,08,0,00,-59,46,3,08,0,00,-59,46
25625,-0,78,0,49,-10,49,-0,58,0,10,7,00,0,00,-40,60,3,67,0,00,-56,63,3,67,0,00,-56,63
25643,-0,59,0,49,-10,49,-0,39,0,10,7,00,0,00,-27,30,4,17,0,00,-52,23,4,17,0,00,-52,23
25659,-0,59,0,49,-10,49,-0,39,0,10,7,00,0,00,-27,30,4,59,0,00,-48,49,4,59,0,00,-48,49
25675,-0,49,0,69,-10,49,-0,29,0,30,21,00,0,00,-20,30,7,05,0,00,-44,26,7,05,0,00,-44,26
25691,-0,29,0,49,-9,90,-0,09,0,10,7,00,0,00,-6,30,7,05,0,00,-38,57,7,05,0,00,-38,57
25708,-0,29,0,49,-9,90,-0,09,0,10,7,00,0,00,-6,30,7,00,0,00,-33,73,7,00,0,00,-33,73
25725,-0,49,0,39,-10,09,-0,29,0,00,0,00,0,00,-20,30,5,95,0,00,-31,72,5,95,0,00,-31,72
25741,-0,49,0,39,-10,09,-0,29,0,00,0,00,0,00,-20,30,5,06,0,00,-30,00,5,06,0,00,-30,00
25759,-0,29,0,59,-10,39,-0,09,0,20,14,00,0,00,-6,30,6,40,0,00,-26,45,6,40,0,00,-26,45
25775,-0,29,0,59,-10,39,-0,09,0,20,14,00,0,00,-6,30,7,54,0,00,-23,43,7,54,0,00,-23,43
25791,-0,29,0,49,-9,90,-0,09,0,10,7,00,0,00,-6,30,7,46,0,00,-20,86,7,46,0,00,-20,86
25808,-0,29,0,49,-9,90,-0,09,0,10,7,00,0,00,-6,30,7,39,0,00,-18,67,7,39,0,00,-18,67
25824,-0,20,0,59,-10,00,0,00,0,20,14,00,0,00,0,00,8,38,0,00,-15,87,8,38,0,00,-15,87
25840,-0,20,0,59,-10,49,0,00,0,20,14,00,0,00,0,00,9,22,0,00,-13,49,9,22,0,00,-13,49
25856,-0,20,0,49,-10,49,0,00,0,10,7,00,0,00,0,00,8,89,0,00,-11,47,8,89,0,00,-11,47
25872,-0,20,0,49,-9,90,0,00,0,10,7,00,0,00,0,00,8,61,0,00,-9,75,8,61,0,00,-9,75
25889,-0,20,0,49,-9,90,0,00,0,10,7,00,0,00,0,00,8,37,0,00,-8,29,8,37,0,00,-8,29
25905,-0,20,0,49,-10,19,0,00,0,10,7,00,0,00,0,00,8,16,0,00,-7,04,8,16,0,00,-7,04
25922,-0,20,0,49,-10,19,0,00,0,10,7,00,0,00,0,00,7,99,0,00,-5,99,7,99,0,00,-5,99
25942,-0,20,0,49,-10,19,0,00,0,10,7,00,0,00,0,00,7,84,0,00,-5,09,7,84,0,00,-5,09
25961,-0,20,0,49,-10,00,0,00,0,10,7,00,0,00,0,00,7,71,0,00,-4,32,7,71,0,00,-4,32
25977,-0,20,0,29,-10,00,0,00,-0,10,-7,00,0,00,0,00,5,51,0,00,-3,68,5,51,0,00,-3,68
25993,-0,20,0,29,-10,00,0,00,-0,10,-7,00,0,00,0,00,3,63,0,00,-3,12,3,63,0,00,-3,12
26010,-0,20,0,29,-10,00,0,00,-0,10,-7,00,0,00,0,00,2,04,0,00,-2,66,2,04,0,00,-2,66
26027,-0,20,0,29,-10,00,0,00,-0,10,-7,00,0,00,0,00,0,68,0,00,-2,26,0,68,0,00,-2,26
26043,-0,20,0,29,-10,09,0,00,-0,10,-7,00,0,00,0,00,-0,47,0,00,-1,92,-0,47,0,00,-1,92
26058,-0,20,0,39,-10,09,0,00,0,00,0,00,0,00,0,00,-0,40,0,00,-1,63,-0,40,0,00,-1,63
26073,-0,20,0,39,-10,09,0,00,0,00,0,00,0,00,0,00,-0,34,0,00,-1,39,-0,34,0,00,-1,39
26092,-0,20,0,20,-9,90,0,00,-0,19,-13,30,0,00,0,00,-2,28,0,00,-1,18,-2,28,0,00,-1,18
26111,-0,20,0,20,-10,00,0,00,-0,19,-13,30,0,00,0,00,-3,94,0,00,-1,00,-3,94,0,00,-1,00
26127,0,00,0,29,-10,00,0,20,-0,10,-7,00,0,00,14,00,-4,40,0,00,1,25,-4,40,0,00,1,25
26143,0,20,0,49,-10,19,0,40,0,10,7,00,0,00,28,00,-2,69,0,00,5,26,-2,69,0,00,5,26
26158,0,20,0,49,-10,19,0,40,0,10,7,00,0,00,28,00,-1,23,0,00,8,67,-1,23,0,00,8,67
26173,0,20,0,49,-9,90,0,40,0,10,7,00,0,00,28,00,0,00,0,00,11,57,0,00,0,00,11,57
26189,0,29,0,49,-9,90,0,49,0,10,7,00,0,00,34,30,1,05,0,00,14,98,1,05,0,00,14,98
26209,0,29,0,78,-10,29,0,49,0,39,27,30,0,00,34,30,4,99,0,00,17,88,4,99,0,00,17,88
26226,0,49,0,78,-10,29,0,69,0,39,27,30,0,00,48,30,8,34,0,00,22,44,8,34,0,00,22,44
26242,0,59,0,59,-10,39,0,79,0,20,14,00,0,00,55,30,9,18,0,00,27,37,9,18,0,00,27,37
26258,0,59,0,59,-10,39,0,79,0,20,14,00,0,00,55,30,9,91,0,00,31,56,9,91,0,00,31,56
26275,0,78,0,59,-10,00,0,98,0,20,14,00,0,00,68,60,10,52,0,00,37,12,10,52,0,00,37,12
26291,0,78,0,59,-10,58,0,98,0,20,14,00,0,00,68,60,11,04,0,00,41,84,11,04,0,00,41,84
26307,0,78,0,59,-10,58,0,98,0,20,14,00,0,00,68,60,11,49,0,00,45,85,11,49,0,00,45,85
26324,0,78,0,49,-9,90,0,98,0,10,7,00,0,00,68,60,10,81,0,00,49,26,10,81,0,00,49,26
26340,0,88,0,49,-9,90,1,08,0,10,7,00,0,00,75,60,10,24,0,00,53,22,10,24,0,00,53,22
26356,0,88,0,59,-10,00,1,08,0,20,14,00,0,00,75,60,10,81,0,00,56,57,10,81,0,00,56,57
26375,1,08,0,59,-10,00,1,28,0,20,14,00,0,00,89,60,11,28,0,00,61,53,11,28,0,00,61,53
26391,1,27,0,59,-10,00,1,47,0,20,14,00,0,00,102,90,11,69,0,00,67,73,11,69,0,00,67,73
26407,1,27,0,59,-10,00,1,47,0,20,14,00,0,00,102,90,12,04,0,00,73,01,12,04,0,00,73,01
26424,1,27,0,59,-10,00,1,47,0,20,14,00,0,00,102,90,12,33,0,00,77,49,12,33,0,00,77,49
26439,1,27,0,59,-10,00,1,47,0,20,14,00,0,00,102,90,12,58,0,00,81,30,12,58,0,00,81,30
26455,1,27,0,59,-10,00,1,47,0,20,14,00,0,00,102,90,12,80,0,00,84,54,12,80,0,00,84,54
26472,1,27,0,59,-10,00,1,47,0,20,14,00,0,00,102,90,12,98,0,00,87,30,12,98,0,00,87,30
26488,1,27,0,59,-10,00,1,47,0,20,14,00,0,00,102,90,13,13,0,00,89,64,13,13,0,00,89,64
26505,1,27,0,59,-10,00,1,47,0,20,14,00,0,00,102,90,13,26,0,00,91,63,13,26,0,00,90,00
26523,1,27,0,59,-10,00,1,47,0,20,14,00,0,00,102,90,13,37,0,00,93,32,13,37,0,00,90,00
26540,1,37,0,39,-10,09,1,57,0,00,0,00,0,00,109,90,11,37,0,00,95,80,11,37,0,00,90,00
26556,1,37,0,39,-10,09,1,57,0,00,0,00,0,00,109,90,9,66,0,00,97,92,9,66,0,00,90,00
26577,1,37,0,39,-10,09,1,57,0,00,0,00,0,00,109,90,8,21,0,00,99,72,8,21,0,00,90,00
