Time,RawAccelX,RawAccelY,RawAccelZ,CalibRobotX,CalibRobotY,TargetModelPitch(X),TargetModelYaw(Y),TargetModelRoll(Z),ClampedModelPitch(X),ClampedModelYaw(Y),ClampedModelRoll(Z)
446,-0,20,0,29,-10,19,0,00,-0,10,7,00,0,00,0,00,1,05,0,00,0,00
471,-0,20,0,39,-10,09,0,00,0,00,-0,00,0,00,0,00,0,89,0,00,0,00
580,-0,20,0,29,-10,19,0,00,-0,10,7,00,0,00,0,00,1,81,0,00,0,00
603,-0,20,0,49,-10,19,0,00,0,10,-7,00,0,00,0,00,0,49,0,00,0,00
629,-0,20,0,49,-10,19,0,00,0,10,-7,00,0,00,0,00,-0,64,0,00,0,00
652,-0,20,0,29,-10,19,0,00,-0,10,7,00,0,00,0,00,0,51,0,00,0,00
675,-0,20,0,29,-10,19,0,00,-0,10,7,00,0,00,0,00,1,48,0,00,0,00
692,-0,20,0,29,-10,09,0,00,-0,10,7,00,0,00,0,00,2,31,0,00,0,00
715,-0,20,0,39,-10,09,0,00,0,00,-0,00,0,00,0,00,1,96,0,00,0,00
736,-0,20,0,39,-10,09,0,00,0,00,-0,00,0,00,0,00,1,67,0,00,0,00
756,-0,20,0,29,-10,19,0,00,-0,10,7,00,0,00,0,00,2,47,0,00,0,00
776,-0,20,0,29,-10,19,0,00,-0,10,7,00,0,00,0,00,3,15,0,00,0,00
796,0,00,0,39,-10,09,0,20,0,00,-0,00,0,00,14,00,2,68,0,00,2,10
816,0,00,0,29,-10,19,0,20,-0,10,7,00,0,00,14,00,3,32,0,00,3,89
836,-0,20,0,29,-10,19,0,00,-0,10,7,00,0,00,0,00,3,88,0,00,3,30
856,-0,20,0,39,-10,09,0,00,0,00,-0,00,0,00,0,00,3,29,0,00,2,81
875,-0,20,0,39,-10,29,0,00,0,00,-0,00,0,00,0,00,2,80,0,00,2,39
894,-0,20,0,39,-10,29,0,00,0,00,-0,00,0,00,0,00,2,38,0,00,2,03
916,-0,20,0,29,-10,19,0,00,-0,10,7,00,0,00,0,00,3,07,0,00,1,72
936,-0,20,0,29,-10,19,0,00,-0,10,7,00,0,00,0,00,3,66,0,00,1,47
956,-0,20,0,29,-10,19,0,00,-0,10,7,00,0,00,0,00,4,16,0,00,1,25
976,-0,20,0,29,-10,19,0,00,-0,10,7,00,0,00,0,00,4,59,0,00,1,06
995,-0,20,0,29,-10,19,0,00,-0,10,7,00,0,00,0,00,4,95,0,00,0,90
1012,-0,20,0,29,-10,19,0,00,-0,10,7,00,0,00,0,00,5,26,0,00,0,76
1032,-0,20,0,29,-10,19,0,00,-0,10,7,00,0,00,0,00,5,52,0,00,0,65
1051,-0,20,0,29,-10,19,0,00,-0,10,7,00,0,00,0,00,5,74,0,00,0,55
1069,-0,20,0,29,-10,19,0,00,-0,10,7,00,0,00,0,00,5,93,0,00,0,47
1087,-0,20,0,29,-10,19,0,00,-0,10,7,00,0,00,0,00,6,09,0,00,0,40
1105,-0,20,0,29,-10,19,0,00,-0,10,7,00,0,00,0,00,6,23,0,00,0,34
1123,0,00,0,39,-10,09,0,20,0,00,-0,00,0,00,14,00,5,29,0,00,2,39
1141,0,00,0,39,-10,09,0,20,0,00,-0,00,0,00,14,00,4,50,0,00,4,13
1160,-0,20,0,39,-10,09,0,00,0,00,-0,00,0,00,0,00,3,82,0,00,3,51
1178,-0,20,0,49,-10,19,0,00,0,10,-7,00,0,00,0,00,2,20,0,00,2,98
1199,-0,20,0,49,-10,00,0,00,0,10,-7,00,0,00,0,00,0,82,0,00,2,54
1218,0,00,0,29,-10,00,0,20,-0,10,7,00,0,00,14,00,1,75,0,00,4,26
1236,0,00,0,39,-10,09,0,20,0,00,-0,00,0,00,14,00,1,49,0,00,5,72
1252,-0,20,0,39,-10,09,0,00,0,00,-0,00,0,00,0,00,1,26,0,00,4,86
1269,-0,20,0,39,-10,09,0,00,0,00,-0,00,0,00,0,00,1,07,0,00,4,13
1288,-0,20,0,39,-10,09,0,00,0,00,-0,00,0,00,0,00,0,91,0,00,3,51
1306,-0,20,0,39,-10,09,0,00,0,00,-0,00,0,00,0,00,0,78,0,00,2,98
1324,-0,20,0,39,-10,19,0,00,0,00,-0,00,0,00,0,00,0,66,0,00,2,54
1343,-0,20,0,29,-10,19,0,00,-0,10,7,00,0,00,0,00,1,61,0,00,2,16
1361,-0,20,0,29,-10,19,0,00,-0,10,7,00,0,00,0,00,2,42,0,00,1,83
1380,-0,20,0,29,-10,09,0,00,-0,10,7,00,0,00,0,00,3,11,0,00,1,56
1399,-0,20,0,39,-10,09,0,00,0,00,-0,00,0,00,0,00,2,64,0,00,1,32
1417,-0,20,0,29,-10,00,0,00,-0,10,7,00,0,00,0,00,3,29,0,00,1,13
1436,-0,20,0,29,-10,00,0,00,-0,10,7,00,0,00,0,00,3,85,0,00,0,96
1456,-0,20,0,29,-10,00,0,00,-0,10,7,00,0,00,0,00,4,32,0,00,0,81
1474,-0,20,0,29,-10,09,0,00,-0,10,7,00,0,00,0,00,4,72,0,00,0,69
1492,-0,20,0,39,-10,09,0,00,0,00,-0,00,0,00,0,00,4,02,0,00,0,59
1509,-0,20,0,29,-10,19,0,00,-0,10,7,00,0,00,0,00,4,46,0,00,0,50
1534,-0,20,0,29,-10,19,0,00,-0,10,7,00,0,00,0,00,4,84,0,00,0,42
1554,-0,20,0,29,-10,19,0,00,-0,10,7,00,0,00,0,00,5,17,0,00,0,36
1572,0,00,0,39,-10,09,0,20,0,00,-0,00,0,00,14,00,4,39,0,00,2,41
1588,0,00,0,39,-10,09,0,20,0,00,-0,00,0,00,14,00,3,73,0,00,4,15
1604,-0,20,0,29,-10,19,0,00,-0,10,7,00,0,00,0,00,4,22,0,00,3,52
1622,-0,20,0,29,-10,09,0,00,-0,10,7,00,0,00,0,00,4,64,0,00,3,00
1641,0,00,0,39,-10,09,0,20,0,00,-0,00,0,00,14,00,3,94,0,00,4,65
1660,-0,20,0,39,-10,09,0,00,0,00,-0,00,0,00,0,00,3,35,0,00,3,95
1678,-0,20,0,39,-10,09,0,00,0,00,-0,00,0,00,0,00,2,85,0,00,3,36
1699,-0,20,0,49,-10,19,0,00,0,10,-7,00,0,00,0,00,1,37,0,00,2,85
1716,-0,20,0,39,-10,09,0,00,0,00,-0,00,0,00,0,00,1,17,0,00,2,43
1735,0,00,0,39,-10,09,0,20,0,00,-0,00,0,00,14,00,0,99,0,00,4,16
1753,0,00,0,29,-10,19,0,20,-0,10,7,00,0,00,14,00,1,89,0,00,5,64
1771,0,00,0,29,-10,19,0,20,-0,10,7,00,0,00,14,00,2,66,0,00,6,89
1789,0,00,0,29,-10,19,0,20,-0,10,7,00,0,00,14,00,3,31,0,00,7,96
1807,0,00,0,29,-10,00,0,20,-0,10,7,00,0,00,14,00,3,86,0,00,8,86
1825,-0,20,0,29,-10,00,0,00,-0,10,7,00,0,00,0,00,4,33,0,00,7,53
1846,0,00,0,49,-10,19,0,20,0,10,-7,00,0,00,14,00,2,63,0,00,8,50
1865,0,00,0,39,-10,09,0,20,0,00,-0,00,0,00,14,00,2,24,0,00,9,33
1883,-0,20,0,39,-10,09,0,00,0,00,-0,00,0,00,0,00,1,90,0,00,7,93
1902,-0,20,0,39,-10,09,0,00,0,00,-0,00,0,00,0,00,1,62,0,00,6,74
1921,-0,20,0,39,-10,19,0,00,0,00,-0,00,0,00,0,00,1,37,0,00,5,73
1940,-0,20,0,29,-10,19,0,00,-0,10,7,00,0,00,0,00,2,22,0,00,4,87
1956,-0,20,0,29,-10,19,0,00,-0,10,7,00,0,00,0,00,2,94,0,00,4,14
1972,-0,20,0,29,-10,19,0,00,-0,10,7,00,0,00,0,00,3,55,0,00,3,52
1988,-0,20,0,29,-10,19,0,00,-0,10,7,00,0,00,0,00,4,06,0,00,2,99
2004,-0,20,0,29,-10,19,0,00,-0,10,7,00,0,00,0,00,4,50,0,00,2,54
2020,-0,20,0,39,-10,09,0,00,0,00,-0,00,0,00,0,00,3,83,0,00,2,16
2036,-0,20,0,39,-10,09,0,00,0,00,-0,00,0,00,0,00,3,25,0,00,1,84
2055,0,00,0,29,-10,19,0,20,-0,10,7,00,0,00,14,00,3,82,0,00,3,66
2073,0,00,0,29,-10,29,0,20,-0,10,7,00,0,00,14,00,4,29,0,00,5,21
2091,0,00,0,39,-10,29,0,20,0,00,-0,00,0,00,14,00,3,65,0,00,6,53
2109,-0,20,0,39,-10,09,0,00,0,00,-0,00,0,00,0,00,3,10,0,00,5,55
2127,-0,20,0,39,-10,09,0,00,0,00,-0,00,0,00,0,00,2,64,0,00,4,72
2148,-0,20,0,20,-10,09,0,00,-0,19,13,30,0,00,0,00,4,24,0,00,4,01
2164,-0,20,0,39,-10,09,0,00,0,00,-0,00,0,00,0,00,3,60,0,00,3,41
2180,-0,20,0,39,-10,09,0,00,0,00,-0,00,0,00,0,00,3,06,0,00,2,90
2196,-0,20,0,29,-10,19,0,00,-0,10,7,00,0,00,0,00,3,65,0,00,2,46
2212,-0,49,0,29,-10,19,-0,29,-0,10,7,00,0,00,-20,30,4,15,0,00,-0,95
2232,0,59,0,78,-10,29,0,79,0,39,-27,30,0,00,55,30,-0,56,0,00,7,49
2250,0,59,0,78,-10,19,0,79,0,39,-27,30,0,00,55,30,-4,57,0,00,14,66
2268,0,59,0,88,-10,19,0,79,0,49,-34,30,0,00,55,30,-9,03,0,00,20,75
2286,0,59,0,49,-9,90,0,79,0,10,-7,00,0,00,55,30,-8,73,0,00,25,94
2303,0,49,0,49,-9,90,0,69,0,10,-7,00,0,00,48,30,-8,47,0,00,29,29
2321,0,29,0,29,-10,68,0,49,-0,10,7,00,0,00,34,30,-6,15,0,00,30,04
2338,0,29,0,29,-10,68,0,49,-0,10,7,00,0,00,34,30,-4,18,0,00,30,68
2355,-0,59,0,39,-10,09,-0,39,0,00,-0,00,0,00,-27,30,-3,55,0,00,21,98
2372,-0,59,0,39,-10,09,-0,39,0,00,-0,00,0,00,-27,30,-3,02,0,00,14,59
2388,-0,59,0,39,-10,09,-0,39,0,00,-0,00,0,00,-27,30,-2,56,0,00,8,31
2404,-0,59,0,78,-10,00,-0,39,0,39,-27,30,0,00,-27,30,-6,28,0,00,2,97
2421,0,59,0,78,-10,00,0,79,0,39,-27,30,0,00,55,30,-9,43,0,00,10,82
2439,0,59,0,10,-10,19,0,79,-0,29,20,30,0,00,55,30,-4,97,0,00,17,49
2456,-0,20,0,10,-10,19,0,00,-0,29,20,30,0,00,0,00,-1,18,0,00,14,87
2473,0,00,0,29,-10,19,0,20,-0,10,7,00,0,00,14,00,0,05,0,00,14,74
2490,0,00,0,29,-10,29,0,20,-0,10,7,00,0,00,14,00,1,09,0,00,14,63
2507,0,59,0,78,-10,29,0,79,0,39,-27,30,0,00,55,30,-3,17,0,00,20,73
2524,0,59,0,39,-10,09,0,79,0,00,-0,00,0,00,55,30,-2,69,0,00,25,91
2541,0,29,0,39,-10,09,0,49,0,00,-0,00,0,00,34,30,-2,29,0,00,27,17
2558,0,29,0,20,-10,09,0,49,-0,19,13,30,0,00,34,30,0,05,0,00,28,24
2575,-1,67,0,20,-10,09,-1,47,-0,19,13,30,0,00,-102,90,2,04,0,00,8,57
2593,-0,49,0,10,-10,19,-0,29,-0,29,20,30,0,00,-20,30,4,78,0,00,4,24
2611,-0,49,0,10,-10,19,-0,29,-0,29,20,30,0,00,-20,30,7,11,0,00,0,56
2628,-0,29,0,10,-10,19,-0,09,-0,29,20,30,0,00,-6,30,9,08,0,00,-0,47
2644,-0,29,0,10,-10,19,-0,09,-0,29,20,30,0,00,-6,30,10,77,0,00,-1,35
2660,-0,49,0,29,-10,19,-0,29,-0,10,7,00,0,00,-20,30,10,20,0,00,-4,19
2676,-0,49,0,39,-10,09,-0,29,0,00,-0,00,0,00,-20,30,8,67,0,00,-6,61
2692,0,00,0,39,-10,09,0,20,0,00,-0,00,0,00,14,00,7,37,0,00,-3,51
2708,0,00,0,29,-10,19,0,20,-0,10,7,00,0,00,14,00,7,32,0,00,-0,89
2724,-0,20,0,29,-10,19,0,00,-0,10,7,00,0,00,0,00,7,27,0,00,-0,75
2740,-0,59,0,49,-10,19,-0,39,0,10,-7,00,0,00,-27,30,5,13,0,00,-4,74
2756,-0,59,0,49,-10,19,-0,39,0,10,-7,00,0,00,-27,30,3,31,0,00,-8,12
2772,0,20,0,69,-10,49,0,40,0,30,-21,00,0,00,28,00,-0,34,0,00,-2,70
2788,0,20,0,69,-10,49,0,40,0,30,-21,00,0,00,28,00,-3,44,0,00,1,90
2815,0,20,0,69,-10,49,0,40,0,30,-21,00,0,00,28,00,-6,07,0,00,5,82
2834,0,00,0,39,-10,29,0,20,0,00,-0,00,0,00,14,00,-5,16,0,00,7,04
2852,0,00,0,39,-9,90,0,20,0,00,-0,00,0,00,14,00,-4,39,0,00,8,09
2868,0,20,0,20,-9,90,0,40,-0,19,13,30,0,00,28,00,-1,73,0,00,11,07
2884,0,20,0,29,-10,19,0,40,-0,10,7,00,0,00,28,00,-0,42,0,00,13,61
2900,-0,20,0,29,-10,19,0,00,-0,10,7,00,0,00,0,00,0,69,0,00,11,57
2916,-0,20,0,29,-10,19,0,00,-0,10,7,00,0,00,0,00,1,64,0,00,9,84
2932,-0,20,0,29,-10,19,0,00,-0,10,7,00,0,00,0,00,2,44,0,00,8,36
2948,-0,20,0,29,-10,19,0,00,-0,10,7,00,0,00,0,00,3,12,0,00,7,11
2964,0,00,0,29,-10,19,0,20,-0,10,7,00,0,00,14,00,3,71,0,00,8,14
2980,-0,20,0,29,-10,19,0,00,-0,10,7,00,0,00,0,00,4,20,0,00,6,92
2996,-0,20,0,29,-10,19,0,00,-0,10,7,00,0,00,0,00,4,62,0,00,5,88
3012,-0,20,0,39,-10,09,0,00,0,00,-0,00,0,00,0,00,3,93,0,00,5,00
3028,-0,20,0,39,-10,09,0,00,0,00,-0,00,0,00,0,00,3,34,0,00,4,25
3044,0,00,0,29,-10,19,0,20,-0,10,7,00,0,00,14,00,3,89,0,00,5,71
3060,0,00,0,29,-10,19,0,20,-0,10,7,00,0,00,14,00,4,35,0,00,6,96
3076,-0,20,0,29,-10,19,0,00,-0,10,7,00,0,00,0,00,4,75,0,00,5,91
3092,-0,20,0,29,-10,09,0,00,-0,10,7,00,0,00,0,00,5,09,0,00,5,03
3108,-0,20,0,39,-10,09,0,00,0,00,-0,00,0,00,0,00,4,33,0,00,4,27
3124,-0,20,0,39,-10,29,0,00,0,00,-0,00,0,00,0,00,3,68,0,00,3,63
3140,0,00,0,39,-10,29,0,20,0,00,-0,00,0,00,14,00,3,12,0,00,5,19
3156,0,00,0,39,-10,09,0,20,0,00,-0,00,0,00,14,00,2,66,0,00,6,51
3172,0,00,0,39,-10,09,0,20,0,00,-0,00,0,00,14,00,2,26,0,00,7,63
3188,0,00,0,39,-10,09,0,20,0,00,-0,00,0,00,14,00,1,92,0,00,8,59
3204,-0,20,0,39,-10,09,0,00,0,00,-0,00,0,00,0,00,1,63,0,00,7,30
3220,-0,20,0,39,-10,09,0,00,0,00,-0,00,0,00,0,00,1,39,0,00,6,20
3236,-0,20,0,39,-10,09,0,00,0,00,-0,00,0,00,0,00,1,18,0,00,5,27
3252,-0,20,0,39,-10,09,0,00,0,00,-0,00,0,00,0,00,1,00,0,00,4,48
3268,-0,20,0,39,-10,09,0,00,0,00,-0,00,0,00,0,00,0,85,0,00,3,81
3284,-0,20,0,39,-10,09,0,00,0,00,-0,00,0,00,0,00,0,72,0,00,3,24
3306,-0,20,0,39,-10,19,0,00,0,00,-0,00,0,00,0,00,0,62,0,00,2,75
3341,-0,20,0,39,-10,09,0,00,0,00,-0,00,0,00,0,00,0,52,0,00,2,34
3364,-0,20,0,39,-10,09,0,00,0,00,-0,00,0,00,0,00,0,44,0,00,1,99
3389,-0,20,0,39,-10,09,0,00,0,00,-0,00,0,00,0,00,0,38,0,00,1,69
3410,-0,20,0,39,-10,09,0,00,0,00,-0,00,0,00,0,00,0,32,0,00,1,44
3436,-0,20,0,39,-10,09,0,00,0,00,-0,00,0,00,0,00,0,27,0,00,1,22
3459,-0,20,0,39,-10,09,0,00,0,00,-0,00,0,00,0,00,0,23,0,00,1,04
3479,-0,20,0,39,-10,09,0,00,0,00,-0,00,0,00,0,00,0,20,0,00,0,88
3498,-0,20,0,39,-10,09,0,00,0,00,-0,00,0,00,0,00,0,17,0,00,0,75
3516,-0,20,0,39,-10,09,0,00,0,00,-0,00,0,00,0,00,0,14,0,00,0,64
3533,-0,20,0,39,-10,09,0,00,0,00,-0,00,0,00,0,00,0,12,0,00,0,54
3550,-0,20,0,29,-10,19,0,00,-0,10,7,00,0,00,0,00,1,15,0,00,0,46
3567,-0,20,0,29,-10,19,0,00,-0,10,7,00,0,00,0,00,2,03,0,00,0,39
3584,-0,29,0,49,-10,19,-0,09,0,10,-7,00,0,00,-6,30,0,68,0,00,-0,61
3601,-0,29,0,49,-10,19,-0,09,0,10,-7,00,0,00,-6,30,-0,48,0,00,-1,47
3618,-0,20,0,29,-10,19,0,00,-0,10,7,00,0,00,0,00,0,65,0,00,-1,25
3635,-0,20,0,29,-10,19,0,00,-0,10,7,00,0,00,0,00,1,60,0,00,-1,06
3652,-0,20,0,29,-10,19,0,00,-0,10,7,00,0,00,0,00,2,41,0,00,-0,90
3668,-0,20,0,39,-10,09,0,00,0,00,-0,00,0,00,0,00,2,05,0,00,-0,76
3684,-0,20,0,39,-10,09,0,00,0,00,-0,00,0,00,0,00,1,74,0,00,-0,65
3700,-0,20,0,39,-10,09,0,00,0,00,-0,00,0,00,0,00,1,48,0,00,-0,55
3716,-0,20,0,39,-10,09,0,00,0,00,-0,00,0,00,0,00,1,26,0,00,-0,47
3732,-0,20,0,29,-10,19,0,00,-0,10,7,00,0,00,0,00,2,12,0,00,-0,40
3748,-0,20,0,29,-10,19,0,00,-0,10,7,00,0,00,0,00,2,85,0,00,-0,34
3764,-0,20,0,29,-10,19,0,00,-0,10,7,00,0,00,0,00,3,47,0,00,-0,29
3780,-0,20,0,29,-10,09,0,00,-0,10,7,00,0,00,0,00,4,00,0,00,-0,25
3796,-0,20,0,39,-10,09,0,00,0,00,-0,00,0,00,0,00,3,40,0,00,-0,21
3812,-0,20,0,39,-10,09,0,00,0,00,-0,00,0,00,0,00,2,89,0,00,-0,18
3828,-0,20,0,39,-10,09,0,00,0,00,-0,00,0,00,0,00,2,46,0,00,-0,15
3844,-0,20,0,39,-10,19,0,00,0,00,-0,00,0,00,0,00,2,09,0,00,-0,13
3860,-0,20,0,29,-10,19,0,00,-0,10,7,00,0,00,0,00,2,83,0,00,-0,11
3876,-0,20,0,39,-10,09,0,00,0,00,-0,00,0,00,0,00,2,40,0,00,-0,09
3892,0,00,0,39,-10,09,0,20,0,00,-0,00,0,00,14,00,2,04,0,00,2,02
3908,0,00,0,39,-10,09,0,20,0,00,-0,00,0,00,14,00,1,74,0,00,3,82
3924,-0,20,0,39,-10,09,0,00,0,00,-0,00,0,00,0,00,1,48,0,00,3,25
3940,-0,20,0,29,-10,19,0,00,-0,10,7,00,0,00,0,00,2,30,0,00,2,76
3965,-0,20,0,39,-10,09,0,00,0,00,-0,00,0,00,0,00,1,96,0,00,2,34
3983,-0,20,0,39,-10,09,0,00,0,00,-0,00,0,00,0,00,1,66,0,00,1,99
4001,-0,20,0,39,-10,09,0,00,0,00,-0,00,0,00,0,00,1,41,0,00,1,69
4018,-0,20,0,39,-10,09,0,00,0,00,-0,00,0,00,0,00,1,20,0,00,1,44
4035,-0,20,0,39,-10,09,0,00,0,00,-0,00,0,00,0,00,1,02,0,00,1,22
4052,-0,20,0,39,-10,09,0,00,0,00,-0,00,0,00,0,00,0,87,0,00,1,04
4068,-0,20,0,39,-10,09,0,00,0,00,-0,00,0,00,0,00,0,74,0,00,0,88
4084,-0,20,0,39,-10,09,0,00,0,00,-0,00,0,00,0,00,0,63,0,00,0,75
4100,-0,20,0,39,-10,09,0,00,0,00,-0,00,0,00,0,00,0,53,0,00,0,64
4116,-0,20,0,29,-10,19,0,00,-0,10,7,00,0,00,0,00,1,50,0,00,0,54
4132,-0,20,0,29,-10,19,0,00,-0,10,7,00,0,00,0,00,2,33,0,00,0,46
4148,-0,20,0,29,-10,19,0,00,-0,10,7,00,0,00,0,00,3,03,0,00,0,39
4164,0,00,0,29,-10,19,0,20,-0,10,7,00,0,00,14,00,3,62,0,00,2,43
4180,-0,20,0,39,-10,09,0,00,0,00,-0,00,0,00,0,00,3,08,0,00,2,07
4196,-0,20,0,39,-10,09,0,00,0,00,-0,00,0,00,0,00,2,62,0,00,1,76
4212,-0,20,0,39,-10,09,0,00,0,00,-0,00,0,00,0,00,2,23,0,00,1,49
4228,-0,20,0,39,-10,09,0,00,0,00,-0,00,0,00,0,00,1,89,0,00,1,27
4244,-0,20,0,39,-10,09,0,00,0,00,-0,00,0,00,0,00,1,61,0,00,1,08
4260,-0,20,0,39,-10,19,0,00,0,00,-0,00,0,00,0,00,1,37,0,00,0,92
4276,-0,20,0,29,-10,19,0,00,-0,10,7,00,0,00,0,00,2,21,0,00,0,78
4292,-0,20,0,29,-10,09,0,00,-0,10,7,00,0,00,0,00,2,93,0,00,0,66
4315,-0,20,0,39,-10,09,0,00,0,00,-0,00,0,00,0,00,2,49,0,00,0,56
4333,-0,20,0,39,-10,29,0,00,0,00,-0,00,0,00,0,00,2,12,0,00,0,48
4351,-0,20,0,39,-10,19,0,00,0,00,-0,00,0,00,0,00,1,80,0,00,0,41
4368,-0,20,0,29,-10,19,0,00,-0,10,7,00,0,00,0,00,2,58,0,00,0,35
4385,-0,20,0,29,-10,19,0,00,-0,10,7,00,0,00,0,00,3,24,0,00,0,29
4402,-0,20,0,29,-10,19,0,00,-0,10,7,00,0,00,0,00,3,81,0,00,0,25
4419,-0,20,0,29,-10,19,0,00,-0,10,7,00,0,00,0,00,4,29,0,00,0,21
4436,-0,20,0,29,-10,19,0,00,-0,10,7,00,0,00,0,00,4,69,0,00,0,18
4466,-0,20,0,20,-10,09,0,00,-0,19,13,30,0,00,0,00,5,98,0,00,0,15
4483,0,00,0,39,-10,09,0,20,0,00,-0,00,0,00,14,00,5,09,0,00,2,23
4500,0,00,0,39,-10,09,0,20,0,00,-0,00,0,00,14,00,4,32,0,00,4,00
4518,0,00,0,39,-10,09,0,20,0,00,-0,00,0,00,14,00,3,67,0,00,5,50
4536,0,00,0,39,-10,09,0,20,0,00,-0,00,0,00,14,00,3,12,0,00,6,77
4553,0,59,0,39,-10,09,0,79,0,00,-0,00,0,00,55,30,2,65,0,00,14,05
4570,1,08,0,78,-9,60,1,28,0,39,-27,30,0,00,89,60,-1,84,0,00,25,38
4587,1,08,0,78,-9,60,1,28,0,39,-27,30,0,00,89,60,-5,66,0,00,35,02
4605,-0,20,0,98,-9,60,0,00,0,59,-41,30,0,00,0,00,-11,00,0,00,29,76
4622,-0,20,0,98,-10,09,0,00,0,59,-41,30,0,00,0,00,-15,55,0,00,25,30
4639,-0,20,1,37,-10,09,0,00,0,98,-68,60,0,00,0,00,-23,51,0,00,21,50
4656,-0,20,0,88,-11,96,0,00,0,49,-34,30,0,00,0,00,-25,13,0,00,18,28
4673,-3,04,0,88,-11,96,-2,84,0,49,-34,30,0,00,-198,80,-26,50,0,00,-14,28
4690,-0,29,1,27,-12,64,-0,09,0,88,-61,60,0,00,-6,30,-31,77,0,00,-13,09
4707,-0,29,1,27,-12,64,-0,09,0,88,-61,60,0,00,-6,30,-36,24,0,00,-12,07
4724,-1,37,2,06,-14,21,-1,17,1,67,-116,90,0,00,-81,90,-48,34,0,00,-22,54
4741,-1,37,2,06,-11,17,-1,17,1,67,-116,90,0,00,-81,90,-58,62,0,00,-31,45
4758,-0,78,1,27,-11,17,-0,58,0,88,-61,60,0,00,-40,60,-59,07,0,00,-32,82
4776,-0,78,1,08,-10,58,-0,58,0,69,-48,30,0,00,-40,60,-57,45,0,00,-33,99
4793,-1,37,1,08,-10,58,-1,17,0,69,-48,30,0,00,-81,90,-56,08,0,00,-41,17
4816,-2,65,1,47,-11,07,-2,45,1,08,-75,60,0,00,-171,50,-59,01,0,00,-60,72
4833,-2,65,1,47,-10,49,-2,45,1,08,-75,60,0,00,-171,50,-61,50,0,00,-77,34
4850,-1,37,0,49,-10,49,-1,17,0,10,-7,00,0,00,-81,90,-53,32,0,00,-78,02
4867,-1,37,0,69,-10,88,-1,17,0,30,-21,00,0,00,-81,90,-48,47,0,00,-78,60
4885,-2,35,0,69,-10,88,-2,15,0,30,-21,00,0,00,-150,50,-44,35,0,00,-89,39
4903,-1,86,0,98,-9,31,-1,66,0,59,-41,30,0,00,-116,20,-43,90,0,00,-90,00
4920,-1,86,0,98,-9,31,-1,66,0,59,-41,30,0,00,-116,20,-43,51,0,00,-90,00
4937,-1,86,0,98,-9,31,-1,66,0,59,-41,30,0,00,-116,20,-43,18,0,00,-90,00
4954,-1,86,0,98,-9,90,-1,66,0,59,-41,30,0,00,-116,20,-42,89,0,00,-90,00
4972,-2,16,1,47,-9,90,-1,96,1,08,-75,60,0,00,-137,20,-47,80,0,00,-90,00
4989,-1,96,1,37,-10,49,-1,76,0,98,-68,60,0,00,-123,20,-50,92,0,00,-90,00
5006,-1,96,1,37,-10,49,-1,76,0,98,-68,60,0,00,-123,20,-53,57,0,00,-90,00
5023,-1,96,1,67,-10,09,-1,76,1,28,-89,60,0,00,-123,20,-58,98,0,00,-90,00
5040,-1,96,1,67,-9,41,-1,76,1,28,-89,60,0,00,-123,20,-63,57,0,00,-90,00
5057,-1,96,1,27,-9,41,-1,76,0,88,-61,60,0,00,-123,20,-63,27,0,00,-90,00
5076,-1,96,0,69,-8,72,-1,76,0,30,-21,00,0,00,-123,20,-56,93,0,00,-90,00
5093,-2,65,0,69,-8,72,-2,45,0,30,-21,00,0,00,-171,50,-51,54,0,00,-90,00
5115,-2,74,0,29,-8,23,-2,54,-0,10,7,00,0,00,-177,80,-42,76,0,00,-90,00
5133,-2,74,0,29,-8,33,-2,54,-0,10,7,00,0,00,-177,80,-35,30,0,00,-90,00
5150,-1,37,1,57,-8,33,-1,17,1,18,-82,60,0,00,-81,90,-42,39,0,00,-90,00
5167,-1,37,0,00,-7,06,-1,17,-0,39,27,30,0,00,-81,90,-31,94,0,00,-90,00
5185,-1,27,0,00,-7,06,-1,07,-0,39,27,30,0,00,-74,90,-23,05,0,00,-90,00
5202,-1,57,0,20,-9,11,-1,37,-0,19,13,30,0,00,-95,90,-17,60,0,00,-90,00
5220,-1,57,0,20,-10,39,-1,37,-0,19,13,30,0,00,-95,90,-12,97,0,00,-90,00
5238,-0,49,1,08,-10,39,-0,29,0,69,-48,30,0,00,-20,30,-18,27,0,00,-90,00
5255,-0,49,0,88,-9,21,-0,29,0,49,-34,30,0,00,-20,30,-20,67,0,00,-85,67
5272,0,00,0,88,-9,21,0,20,0,49,-34,30,0,00,14,00,-22,71,0,00,-70,72
5289,-1,37,0,10,-9,80,-1,17,-0,29,20,30,0,00,-81,90,-16,26,0,00,-72,40
5307,-1,37,0,10,-9,80,-1,17,-0,29,20,30,0,00,-81,90,-10,78,0,00,-73,82
5324,-0,49,0,59,-9,41,-0,29,0,20,-14,00,0,00,-20,30,-11,26,0,00,-65,79
5341,-0,49,0,59,-9,41,-0,29,0,20,-14,00,0,00,-20,30,-11,67,0,00,-58,97
5358,-0,49,0,59,-9,41,-0,29,0,20,-14,00,0,00,-20,30,-12,02,0,00,-53,17
5375,-0,49,0,49,-9,21,-0,29,0,10,-7,00,0,00,-20,30,-11,27,0,00,-48,24
5392,1,08,0,49,-9,21,1,28,0,10,-7,00,0,00,89,60,-10,63,0,00,-27,56
5410,0,20,0,78,-10,29,0,40,0,39,-27,30,0,00,28,00,-13,13,0,00,-19,23
5431,0,20,0,78,-10,00,0,40,0,39,-27,30,0,00,28,00,-15,25,0,00,-12,14
5448,-0,49,0,10,-10,00,-0,29,-0,29,20,30,0,00,-20,30,-9,92,0,00,-13,37
5465,-0,49,-0,69,-7,64,-0,29,-1,08,75,60,0,00,-20,30,2,91,0,00,-14,41
5481,0,78,-0,69,-7,64,0,98,-1,08,75,60,0,00,68,60,13,81,0,00,-1,96
5498,0,78,1,08,-10,98,0,98,0,69,-48,30,0,00,68,60,4,49,0,00,8,63
5515,0,49,1,08,-10,98,0,69,0,69,-48,30,0,00,48,30,-3,42,0,00,14,58
5531,1,37,1,57,-11,37,1,57,1,18,-82,60,0,00,109,90,-15,30,0,00,28,88
5548,1,37,1,57,-11,37,1,57,1,18,-82,60,0,00,109,90,-25,40,0,00,41,03
5565,1,08,-0,10,-10,00,1,28,-0,49,34,30,0,00,89,60,-16,44,0,00,48,32
5582,1,08,-0,10,-10,39,1,28,-0,49,34,30,0,00,89,60,-8,83,0,00,54,51
5598,0,78,0,29,-10,39,0,98,-0,10,7,00,0,00,68,60,-6,46,0,00,56,62
5615,0,78,0,49,-11,07,0,98,0,10,-7,00,0,00,68,60,-6,54,0,00,58,42
5632,1,37,0,49,-11,07,1,57,0,10,-7,00,0,00,109,90,-6,61,0,00,66,14
5648,1,37,1,08,-10,98,1,57,0,69,-48,30,0,00,109,90,-12,86,0,00,72,70
5665,2,16,1,08,-10,98,2,36,0,69,-48,30,0,00,165,20,-18,18,0,00,86,58
5681,1,57,1,08,-11,17,1,77,0,69,-48,30,0,00,123,90,-22,70,0,00,90,00
5698,1,57,1,08,-11,17,1,77,0,69,-48,30,0,00,123,90,-26,54,0,00,90,00
5714,0,88,0,39,-10,78,1,08,0,00,-0,00,0,00,75,60,-22,56,0,00,90,00
5731,0,88,0,39,-11,17,1,08,0,00,-0,00,0,00,75,60,-19,17,0,00,90,00
5747,0,49,0,29,-11,17,0,69,-0,10,7,00,0,00,48,30,-15,25,0,00,84,61
5763,0,49,0,29,-11,17,0,69,-0,10,7,00,0,00,48,30,-11,91,0,00,79,16
5779,0,49,0,29,-11,17,0,69,-0,10,7,00,0,00,48,30,-9,07,0,00,74,53
5795,0,49,0,00,-10,88,0,69,-0,39,27,30,0,00,48,30,-3,62,0,00,70,60
5811,0,78,0,00,-10,88,0,98,-0,39,27,30,0,00,68,60,1,02,0,00,70,30
5827,0,78,-0,29,-9,51,0,98,-0,68,47,60,0,00,68,60,8,01,0,00,70,04
5843,1,27,-0,29,-9,51,1,47,-0,68,47,60,0,00,102,90,13,95,0,00,74,97
5859,1,27,-0,29,-9,51,1,47,-0,68,47,60,0,00,102,90,18,99,0,00,79,16
5875,1,27,-0,29,-9,51,1,47,-0,68,47,60,0,00,102,90,23,29,0,00,82,72
5891,0,59,-0,29,-8,33,0,79,-0,68,47,60,0,00,55,30,26,93,0,00,78,61
5907,0,59,-0,29,-8,33,0,79,-0,68,47,60,0,00,55,30,30,03,0,00,75,11
5923,0,59,0,49,-11,07,0,79,0,10,-7,00,0,00,55,30,24,48,0,00,72,14
5939,0,59,0,49,-11,56,0,79,0,10,-7,00,0,00,55,30,19,76,0,00,69,61
5955,1,08,0,20,-11,56,1,28,-0,19,13,30,0,00,89,60,18,79,0,00,72,61
5971,1,08,0,20,-10,98,1,28,-0,19,13,30,0,00,89,60,17,96,0,00,75,16
5987,0,59,0,10,-10,98,0,79,-0,29,20,30,0,00,55,30,18,31,0,00,72,18
6003,0,59,0,10,-10,29,0,79,-0,29,20,30,0,00,55,30,18,61,0,00,69,65
6019,0,49,0,20,-10,29,0,69,-0,19,13,30,0,00,48,30,17,82,0,00,66,45
6035,0,49,0,20,-10,09,0,69,-0,19,13,30,0,00,48,30,17,14,0,00,63,72
6051,0,49,0,20,-10,09,0,69,-0,19,13,30,0,00,48,30,16,56,0,00,61,41
6067,0,49,-0,49,-9,51,0,69,-0,88,61,60,0,00,48,30,23,32,0,00,59,44
6083,0,29,-0,49,-9,51,0,49,-0,88,61,60,0,00,34,30,29,06,0,00,55,67
6099,0,20,-0,29,-10,19,0,40,-0,68,47,60,0,00,28,00,31,84,0,00,51,52
6115,0,20,-0,29,-10,19,0,40,-0,68,47,60,0,00,28,00,34,21,0,00,47,99
6147,0,49,0,10,-10,39,0,69,-0,29,20,30,0,00,48,30,32,12,0,00,48,04
6163,0,29,0,29,-10,19,0,49,-0,10,7,00,0,00,34,30,28,35,0,00,45,98
6179,0,29,0,29,-10,19,0,49,-0,10,7,00,0,00,34,30,25,15,0,00,44,23
6195,0,29,0,10,-10,39,0,49,-0,29,20,30,0,00,34,30,24,42,0,00,42,74
6212,0,29,0,10,-10,39,0,49,-0,29,20,30,0,00,34,30,23,80,0,00,41,47
6231,0,29,0,10,-10,39,0,49,-0,29,20,30,0,00,34,30,23,28,0,00,40,40
6248,0,29,0,39,-10,09,0,49,0,00,-0,00,0,00,34,30,19,79,0,00,39,48
6265,0,49,0,39,-10,09,0,69,0,00,-0,00,0,00,48,30,16,82,0,00,40,80
6281,0,78,0,00,-9,90,0,98,-0,39,27,30,0,00,68,60,18,39,0,00,44,97
6298,0,78,0,00,-9,90,0,98,-0,39,27,30,0,00,68,60,19,73,0,00,48,52
6315,0,49,0,10,-10,58,0,69,-0,29,20,30,0,00,48,30,19,81,0,00,48,49
6332,0,49,0,10,-10,39,0,69,-0,29,20,30,0,00,48,30,19,89,0,00,48,46
6348,0,29,0,29,-10,39,0,49,-0,10,7,00,0,00,34,30,17,95,0,00,46,33
6364,0,29,0,29,-10,49,0,49,-0,10,7,00,0,00,34,30,16,31,0,00,44,53
6381,0,49,0,49,-10,49,0,69,0,10,-7,00,0,00,48,30,12,81,0,00,45,09
6398,0,49,0,29,-10,19,0,69,-0,10,7,00,0,00,48,30,11,94,0,00,45,58
6414,0,29,0,29,-10,19,0,49,-0,10,7,00,0,00,34,30,11,20,0,00,43,88
6431,0,49,0,20,-10,09,0,69,-0,19,13,30,0,00,48,30,11,52,0,00,44,55
6448,0,49,0,20,-10,09,0,69,-0,19,13,30,0,00,48,30,11,78,0,00,45,11
6464,0,20,0,20,-9,90,0,40,-0,19,13,30,0,00,28,00,12,01,0,00,42,54
6481,0,20,0,20,-10,09,0,40,-0,19,13,30,0,00,28,00,12,20,0,00,40,36
6498,0,20,0,20,-10,09,0,40,-0,19,13,30,0,00,28,00,12,37,0,00,38,51
6514,0,20,0,20,-10,09,0,40,-0,19,13,30,0,00,28,00,12,51,0,00,36,93
6531,0,20,0,20,-10,09,0,40,-0,19,13,30,0,00,28,00,12,63,0,00,35,59
6547,0,20,0,39,-10,09,0,40,0,00,-0,00,0,00,28,00,10,73,0,00,34,45
6563,0,29,0,39,-10,09,0,49,0,00,-0,00,0,00,34,30,9,12,0,00,34,43
6579,0,29,0,39,-10,09,0,49,0,00,-0,00,0,00,34,30,7,75,0,00,34,41
6595,0,29,0,39,-10,09,0,49,0,00,-0,00,0,00,34,30,6,59,0,00,34,39
6611,0,29,0,39,-10,09,0,49,0,00,-0,00,0,00,34,30,5,60,0,00,34,38
6627,0,29,0,39,-10,09,0,49,0,00,-0,00,0,00,34,30,4,76,0,00,34,37
6643,0,29,0,39,-10,09,0,49,0,00,-0,00,0,00,34,30,4,05,0,00,34,36
6659,0,29,0,39,-10,09,0,49,0,00,-0,00,0,00,34,30,3,44,0,00,34,35
6675,0,20,0,29,-10,19,0,40,-0,10,7,00,0,00,28,00,3,97,0,00,33,40
6691,0,20,0,29,-10,19,0,40,-0,10,7,00,0,00,28,00,4,43,0,00,32,59
6707,0,20,0,29,-10,19,0,40,-0,10,7,00,0,00,28,00,4,81,0,00,31,90
6723,0,20,0,29,-10,19,0,40,-0,10,7,00,0,00,28,00,5,14,0,00,31,31
6739,0,20,0,29,-10,19,0,40,-0,10,7,00,0,00,28,00,5,42,0,00,30,82
6755,0,20,0,39,-10,29,0,40,0,00,-0,00,0,00,28,00,4,61,0,00,30,39
6771,0,00,0,39,-10,29,0,20,0,00,-0,00,0,00,14,00,3,92,0,00,27,94
6787,0,00,0,20,-10,29,0,20,-0,19,13,30,0,00,14,00,5,32,0,00,25,85
6803,0,20,0,20,-10,29,0,40,-0,19,13,30,0,00,28,00,6,52,0,00,26,17
6819,0,20,0,39,-10,09,0,40,0,00,-0,00,0,00,28,00,5,54,0,00,26,44
6835,0,20,0,39,-10,09,0,40,0,00,-0,00,0,00,28,00,4,71,0,00,26,68
6851,0,20,0,20,-10,09,0,40,-0,19,13,30,0,00,28,00,6,00,0,00,26,88
6867,0,20,0,20,-10,09,0,40,-0,19,13,30,0,00,28,00,7,09,0,00,27,04
6883,0,20,0,29,-10,19,0,40,-0,10,7,00,0,00,28,00,7,08,0,00,27,19
6899,0,20,0,29,-10,19,0,40,-0,10,7,00,0,00,28,00,7,07,0,00,27,31
6915,0,20,0,29,-10,39,0,40,-0,10,7,00,0,00,28,00,7,06,0,00,27,41
6947,0,00,0,10,-10,19,0,20,-0,29,20,30,0,00,14,00,9,04,0,00,25,40
6964,0,00,0,20,-10,09,0,20,-0,19,13,30,0,00,14,00,9,68,0,00,23,69
6981,0,00,0,20,-10,09,0,20,-0,19,13,30,0,00,14,00,10,23,0,00,22,24
6998,0,00,0,39,-10,29,0,20,0,00,-0,00,0,00,14,00,8,69,0,00,21,00
7015,0,20,0,39,-10,29,0,40,0,00,-0,00,0,00,28,00,7,39,0,00,22,05
7032,0,00,0,29,-10,19,0,20,-0,10,7,00,0,00,14,00,7,33,0,00,20,84
7048,0,00,0,29,-10,19,0,20,-0,10,7,00,0,00,14,00,7,28,0,00,19,82
7064,0,00,0,29,-10,19,0,20,-0,10,7,00,0,00,14,00,7,24,0,00,18,94
7081,0,00,0,29,-10,00,0,20,-0,10,7,00,0,00,14,00,7,20,0,00,18,20
7098,0,00,0,10,-10,00,0,20,-0,29,20,30,0,00,14,00,9,17,0,00,17,57
7115,0,00,0,20,-10,29,0,20,-0,19,13,30,0,00,14,00,9,79,0,00,17,04
7131,0,20,0,20,-10,29,0,40,-0,19,13,30,0,00,28,00,10,31,0,00,18,68
7148,0,20,0,00,-10,09,0,40,-0,39,27,30,0,00,28,00,12,86,0,00,20,08
7164,0,00,0,00,-10,09,0,20,-0,39,27,30,0,00,14,00,15,03,0,00,19,17
7181,0,20,0,00,-10,09,0,40,-0,39,27,30,0,00,28,00,16,87,0,00,20,49
7198,0,20,0,00,-10,09,0,40,-0,39,27,30,0,00,28,00,18,43,0,00,21,62
7215,0,00,0,10,-10,19,0,20,-0,29,20,30,0,00,14,00,18,71,0,00,20,48
7231,0,00,0,10,-10,09,0,20,-0,29,20,30,0,00,14,00,18,95,0,00,19,50
7248,0,20,0,20,-10,09,0,40,-0,19,13,30,0,00,28,00,18,10,0,00,20,78
7264,0,20,0,20,-10,29,0,40,-0,19,13,30,0,00,28,00,17,38,0,00,21,86
7281,0,00,0,39,-10,29,0,20,0,00,-0,00,0,00,14,00,14,78,0,00,20,68
7305,0,00,0,20,-10,29,0,20,-0,19,13,30,0,00,14,00,14,55,0,00,19,68
7330,0,00,0,20,-10,29,0,20,-0,19,13,30,0,00,14,00,14,37,0,00,18,83
7356,0,00,0,20,-10,19,0,20,-0,19,13,30,0,00,14,00,14,21,0,00,18,10
7379,-0,20,0,10,-10,19,0,00,-0,29,20,30,0,00,0,00,15,12,0,00,15,39
7410,-0,20,0,00,-10,29,0,00,-0,39,27,30,0,00,0,00,16,95,0,00,13,08
7434,-0,20,0,00,-10,09,0,00,-0,39,27,30,0,00,0,00,18,50,0,00,11,12
7456,0,00,0,00,-10,09,0,20,-0,39,27,30,0,00,14,00,19,82,0,00,11,55
7477,0,00,0,10,-10,00,0,20,-0,29,20,30,0,00,14,00,19,89,0,00,11,92
7502,0,00,0,10,-10,00,0,20,-0,29,20,30,0,00,14,00,19,95,0,00,12,23
7528,0,00,0,10,-10,00,0,20,-0,29,20,30,0,00,14,00,20,01,0,00,12,50
7547,-0,20,0,10,-10,19,0,00,-0,29,20,30,0,00,0,00,20,05,0,00,10,62
7565,-0,20,0,10,-10,19,0,00,-0,29,20,30,0,00,0,00,20,09,0,00,9,03
7582,-0,20,0,10,-10,19,0,00,-0,29,20,30,0,00,0,00,20,12,0,00,7,67
7598,-0,20,0,00,-10,09,0,00,-0,39,27,30,0,00,0,00,21,20,0,00,6,52
7614,-0,20,0,00,-10,09,0,00,-0,39,27,30,0,00,0,00,22,11,0,00,5,54
7631,-0,20,0,10,-10,39,0,00,-0,29,20,30,0,00,0,00,21,84,0,00,4,71
7648,-0,20,0,10,-10,39,0,00,-0,29,20,30,0,00,0,00,21,61,0,00,4,01
7664,-0,20,0,10,-10,19,0,00,-0,29,20,30,0,00,0,00,21,41,0,00,3,40
7681,-0,20,0,10,-10,19,0,00,-0,29,20,30,0,00,0,00,21,25,0,00,2,89
7697,-0,20,0,10,-10,19,0,00,-0,29,20,30,0,00,0,00,21,10,0,00,2,46
7714,-0,20,0,00,-10,29,0,00,-0,39,27,30,0,00,0,00,22,03,0,00,2,09
7731,-0,29,0,00,-10,29,-0,09,-0,39,27,30,0,00,-6,30,22,82,0,00,0,83
7747,-0,29,0,00,-10,09,-0,09,-0,39,27,30,0,00,-6,30,23,49,0,00,-0,24
7763,-0,20,0,00,-10,09,0,00,-0,39,27,30,0,00,0,00,24,07,0,00,-0,20
7779,-0,20,0,10,-10,19,0,00,-0,29,20,30,0,00,0,00,23,50,0,00,-0,17
7795,-0,20,0,10,-10,19,0,00,-0,29,20,30,0,00,0,00,23,02,0,00,-0,15
7811,-0,29,0,10,-10,19,-0,09,-0,29,20,30,0,00,-6,30,22,61,0,00,-1,07
7827,-0,29,0,10,-10,19,-0,09,-0,29,20,30,0,00,-6,30,22,27,0,00,-1,85
7843,-0,29,0,10,-10,19,-0,09,-0,29,20,30,0,00,-6,30,21,97,0,00,-2,52
7859,-0,29,0,10,-10,19,-0,09,-0,29,20,30,0,00,-6,30,21,72,0,00,-3,09
7875,-0,20,0,00,-10,29,0,00,-0,39,27,30,0,00,0,00,22,56,0,00,-2,62
7891,-0,20,0,00,-10,29,0,00,-0,39,27,30,0,00,0,00,23,27,0,00,-2,23
7907,-0,29,0,00,-10,29,-0,09,-0,39,27,30,0,00,-6,30,23,87,0,00,-2,84
7923,-0,29,0,00,-10,29,-0,09,-0,39,27,30,0,00,-6,30,24,39,0,00,-3,36
7939,-0,29,0,00,-10,29,-0,09,-0,39,27,30,0,00,-6,30,24,82,0,00,-3,80
7955,-0,29,0,10,-10,19,-0,09,-0,29,20,30,0,00,-6,30,24,15,0,00,-4,18
7971,-0,29,0,10,-10,19,-0,09,-0,29,20,30,0,00,-6,30,23,57,0,00,-4,49
7987,-0,29,0,10,-10,19,-0,09,-0,29,20,30,0,00,-6,30,23,08,0,00,-4,77
8004,-0,29,0,10,-10,19,-0,09,-0,29,20,30,0,00,-6,30,22,66,0,00,-5,00
8020,-0,29,0,29,-10,39,-0,09,-0,10,7,00,0,00,-6,30,20,31,0,00,-5,19
8036,-0,29,0,29,-10,39,-0,09,-0,10,7,00,0,00,-6,30,18,32,0,00,-5,36
8052,-0,29,0,10,-10,39,-0,09,-0,29,20,30,0,00,-6,30,18,61,0,00,-5,50
8068,-0,29,0,10,-10,39,-0,09,-0,29,20,30,0,00,-6,30,18,87,0,00,-5,62
8084,-0,29,0,10,-10,19,-0,09,-0,29,20,30,0,00,-6,30,19,08,0,00,-5,72
8100,-0,29,0,10,-10,00,-0,09,-0,29,20,30,0,00,-6,30,19,26,0,00,-5,81
8116,-0,29,0,10,-10,00,-0,09,-0,29,20,30,0,00,-6,30,19,42,0,00,-5,88
8132,-0,29,0,10,-10,09,-0,09,-0,29,20,30,0,00,-6,30,19,55,0,00,-5,94
8164,-0,29,0,20,-10,29,-0,09,-0,19,13,30,0,00,-6,30,18,61,0,00,-6,00
8180,-0,29,0,20,-10,29,-0,09,-0,19,13,30,0,00,-6,30,17,82,0,00,-6,04
8196,-0,29,0,10,-10,00,-0,09,-0,29,20,30,0,00,-6,30,18,19,0,00,-6,08
8212,-0,29,0,10,-10,00,-0,09,-0,29,20,30,0,00,-6,30,18,51,0,00,-6,11
8228,-0,29,0,10,-10,19,-0,09,-0,29,20,30,0,00,-6,30,18,77,0,00,-6,14
8244,-0,29,0,10,-10,19,-0,09,-0,29,20,30,0,00,-6,30,19,00,0,00,-6,17
8260,-0,29,0,10,-10,39,-0,09,-0,29,20,30,0,00,-6,30,19,20,0,00,-6,19
8276,-0,29,0,10,-10,39,-0,09,-0,29,20,30,0,00,-6,30,19,36,0,00,-6,20
8292,-0,29,0,20,-10,09,-0,09,-0,19,13,30,0,00,-6,30,18,45,0,00,-6,22
8308,-0,29,0,20,-10,09,-0,09,-0,19,13,30,0,00,-6,30,17,68,0,00,-6,23
8324,-0,29,0,10,-10,19,-0,09,-0,29,20,30,0,00,-6,30,18,07,0,00,-6,24
8340,-0,29,0,10,-10,19,-0,09,-0,29,20,30,0,00,-6,30,18,41,0,00,-6,25
8356,-0,29,0,10,-10,19,-0,09,-0,29,20,30,0,00,-6,30,18,69,0,00,-6,26
8372,-0,29,0,10,-10,29,-0,09,-0,29,20,30,0,00,-6,30,18,93,0,00,-6,26
8388,-0,29,0,20,-10,29,-0,09,-0,19,13,30,0,00,-6,30,18,09,0,00,-6,26
8404,-0,29,0,20,-10,09,-0,09,-0,19,13,30,0,00,-6,30,17,37,0,00,-6,26
8420,-0,20,0,20,-10,09,0,00,-0,19,13,30,0,00,0,00,16,76,0,00,-5,32
8436,-0,20,0,10,-10,19,0,00,-0,29,20,30,0,00,0,00,17,29,0,00,-4,52
8452,-0,20,0,10,-10,19,0,00,-0,29,20,30,0,00,0,00,17,74,0,00,-3,84
8468,-0,20,0,10,-10,19,0,00,-0,29,20,30,0,00,0,00,18,13,0,00,-3,27
8484,-0,29,0,10,-10,19,-0,09,-0,29,20,30,0,00,-6,30,18,45,0,00,-3,72
8500,-0,29,0,10,-10,19,-0,09,-0,29,20,30,0,00,-6,30,18,73,0,00,-4,11
8516,-0,29,0,10,-10,19,-0,09,-0,29,20,30,0,00,-6,30,18,96,0,00,-4,44
8548,-0,20,0,20,-10,09,0,00,-0,19,13,30,0,00,0,00,18,11,0,00,-3,77
8564,-0,29,0,10,-10,19,-0,09,-0,29,20,30,0,00,-6,30,18,44,0,00,-4,15
8580,-0,29,0,10,-10,29,-0,09,-0,29,20,30,0,00,-6,30,18,72,0,00,-4,47
8596,-0,29,0,20,-10,29,-0,09,-0,19,13,30,0,00,-6,30,17,91,0,00,-4,75
8612,-0,29,0,20,-10,00,-0,09,-0,19,13,30,0,00,-6,30,17,22,0,00,-4,98
8628,-0,29,0,10,-10,00,-0,09,-0,29,20,30,0,00,-6,30,17,68,0,00,-5,18
8644,-0,29,0,10,-10,19,-0,09,-0,29,20,30,0,00,-6,30,18,07,0,00,-5,35
8660,-0,29,0,10,-10,19,-0,09,-0,29,20,30,0,00,-6,30,18,41,0,00,-5,49
8676,-0,29,0,20,-10,29,-0,09,-0,19,13,30,0,00,-6,30,17,64,0,00,-5,61
8692,-0,29,0,20,-10,29,-0,09,-0,19,13,30,0,00,-6,30,16,99,0,00,-5,71
8708,-0,29,0,29,-10,19,-0,09,-0,10,7,00,0,00,-6,30,15,49,0,00,-5,80
8724,-0,20,0,29,-10,19,0,00,-0,10,7,00,0,00,0,00,14,22,0,00,-4,93
8740,-0,20,0,10,-10,19,0,00,-0,29,20,30,0,00,0,00,15,13,0,00,-4,19
8756,-0,20,0,10,-10,19,0,00,-0,29,20,30,0,00,0,00,15,91,0,00,-3,56
8772,-0,20,0,10,-10,19,0,00,-0,29,20,30,0,00,0,00,16,56,0,00,-3,03
8788,-0,20,0,10,-10,19,0,00,-0,29,20,30,0,00,0,00,17,12,0,00,-2,57
8804,-0,20,0,10,-10,19,0,00,-0,29,20,30,0,00,0,00,17,60,0,00,-2,19
8820,-0,20,0,10,-10,19,0,00,-0,29,20,30,0,00,0,00,18,01,0,00,-1,86
8836,-0,20,0,10,-10,19,0,00,-0,29,20,30,0,00,0,00,18,35,0,00,-1,58
8852,-0,20,0,10,-10,29,0,00,-0,29,20,30,0,00,0,00,18,64,0,00,-1,34
8868,-0,29,0,20,-10,29,-0,09,-0,19,13,30,0,00,-6,30,17,84,0,00,-2,09
8884,-0,29,0,20,-10,39,-0,09,-0,19,13,30,0,00,-6,30,17,16,0,00,-2,72
8900,-0,29,0,10,-10,39,-0,09,-0,29,20,30,0,00,-6,30,17,63,0,00,-3,26
8916,-0,29,0,20,-10,09,-0,09,-0,19,13,30,0,00,-6,30,16,98,0,00,-3,71
8932,-0,20,0,20,-10,09,0,00,-0,19,13,30,0,00,0,00,16,43,0,00,-3,16
8964,-0,20,0,10,-10,00,0,00,-0,29,20,30,0,00,0,00,17,01,0,00,-2,68
8980,-0,29,0,20,-10,49,-0,09,-0,19,13,30,0,00,-6,30,16,45,0,00,-3,23
8996,-0,29,0,20,-10,49,-0,09,-0,19,13,30,0,00,-6,30,15,98,0,00,-3,69
9012,-0,20,0,20,-10,09,0,00,-0,19,13,30,0,00,0,00,15,58,0,00,-3,13
9028,-0,20,0,20,-10,09,0,00,-0,19,13,30,0,00,0,00,15,24,0,00,-2,66
9044,-0,20,0,00,-10,09,0,00,-0,39,27,30,0,00,0,00,17,05,0,00,-2,26
9060,-0,20,0,00,-10,39,0,00,-0,39,27,30,0,00,0,00,18,58,0,00,-1,92
9076,-0,20,0,10,-10,39,0,00,-0,29,20,30,0,00,0,00,18,84,0,00,-1,64
9092,-0,20,0,10,-10,19,0,00,-0,29,20,30,0,00,0,00,19,06,0,00,-1,39
9108,-0,20,0,10,-10,19,0,00,-0,29,20,30,0,00,0,00,19,25,0,00,-1,18
9124,-0,20,0,10,-10,09,0,00,-0,29,20,30,0,00,0,00,19,40,0,00,-1,00
9140,-0,20,0,00,-10,09,0,00,-0,39,27,30,0,00,0,00,20,59,0,00,-0,85
9156,-0,20,-0,10,-10,00,0,00,-0,49,34,30,0,00,0,00,22,65,0,00,-0,73
9172,-0,29,-0,10,-10,00,-0,09,-0,49,34,30,0,00,-6,30,24,39,0,00,-1,56
9188,-0,29,-0,10,-10,00,-0,09,-0,49,34,30,0,00,-6,30,25,88,0,00,-2,27
9204,-0,29,-0,10,-10,00,-0,09,-0,49,34,30,0,00,-6,30,27,14,0,00,-2,88
9220,-0,20,0,00,-10,29,0,00,-0,39,27,30,0,00,0,00,27,17,0,00,-2,45
9236,-0,20,0,00,-10,29,0,00,-0,39,27,30,0,00,0,00,27,19,0,00,-2,08
9252,-0,20,0,00,-10,29,0,00,-0,39,27,30,0,00,0,00,27,20,0,00,-1,77
9268,-0,20,0,00,-10,29,0,00,-0,39,27,30,0,00,0,00,27,22,0,00,-1,50
9284,-0,20,0,00,-10,29,0,00,-0,39,27,30,0,00,0,00,27,23,0,00,-1,28
9300,-0,20,0,00,-10,29,0,00,-0,39,27,30,0,00,0,00,27,24,0,00,-1,08
9316,-0,20,-0,20,-10,29,0,00,-0,59,41,30,0,00,0,00,29,35,0,00,-0,92
9332,-0,20,-0,20,-9,80,0,00,-0,59,41,30,0,00,0,00,31,14,0,00,-0,78
9365,-0,20,0,00,-10,49,0,00,-0,39,27,30,0,00,0,00,30,57,0,00,-0,67
9382,-0,20,0,00,-10,49,0,00,-0,39,27,30,0,00,0,00,30,08,0,00,-0,57
9398,-0,20,-0,49,-10,29,0,00,-0,88,61,60,0,00,0,00,34,80,0,00,-0,48
9414,-0,29,-0,49,-10,29,-0,09,-0,88,61,60,0,00,-6,30,38,82,0,00,-1,35
9431,-0,20,-0,39,-9,80,0,00,-0,78,54,60,0,00,0,00,41,19,0,00,-1,15
9448,-0,20,-0,39,-9,80,0,00,-0,78,54,60,0,00,0,00,43,20,0,00,-0,98
9465,-0,20,-0,39,-9,80,0,00,-0,78,54,60,0,00,0,00,44,91,0,00,-0,83
9481,-0,20,-0,39,-9,90,0,00,-0,78,54,60,0,00,0,00,46,36,0,00,-0,71
9498,-0,29,-0,59,-9,90,-0,09,-0,98,68,60,0,00,-6,30,49,70,0,00,-1,55
9514,-0,29,-0,59,-9,90,-0,09,-0,98,68,60,0,00,-6,30,52,54,0,00,-2,26
9531,-0,29,-0,59,-9,90,-0,09,-0,98,68,60,0,00,-6,30,54,94,0,00,-2,87
9548,-0,29,0,00,-10,49,-0,09,-0,39,27,30,0,00,-6,30,50,80,0,00,-3,38
9565,-0,20,0,00,-10,49,0,00,-0,39,27,30,0,00,0,00,47,27,0,00,-2,87
9581,-0,20,0,00,-10,49,0,00,-0,39,27,30,0,00,0,00,44,28,0,00,-2,44
9598,-0,20,0,00,-10,49,0,00,-0,39,27,30,0,00,0,00,41,73,0,00,-2,08
9614,-0,29,-0,10,-10,00,-0,09,-0,49,34,30,0,00,-6,30,40,62,0,00,-2,71
9631,-0,29,-0,10,-10,00,-0,09,-0,49,34,30,0,00,-6,30,39,67,0,00,-3,25
9648,-0,29,-0,10,-10,00,-0,09,-0,49,34,30,0,00,-6,30,38,86,0,00,-3,71
9665,-0,29,0,10,-10,19,-0,09,-0,29,20,30,0,00,-6,30,36,08,0,00,-4,10
9681,-0,20,0,10,-10,19,0,00,-0,29,20,30,0,00,0,00,33,71,0,00,-3,48
9698,-0,20,0,20,-10,09,0,00,-0,19,13,30,0,00,0,00,30,65,0,00,-2,96
9714,-0,49,0,20,-10,09,-0,29,-0,19,13,30,0,00,-20,30,28,05,0,00,-5,56
9731,-0,20,0,20,-10,09,0,00,-0,19,13,30,0,00,0,00,25,84,0,00,-4,73
9748,-0,20,0,20,-10,09,0,00,-0,19,13,30,0,00,0,00,23,96,0,00,-4,02
9764,-0,20,0,20,-10,29,0,00,-0,19,13,30,0,00,0,00,22,36,0,00,-3,41
9780,-0,20,0,20,-10,19,0,00,-0,19,13,30,0,00,0,00,21,00,0,00,-2,90
9796,-0,20,0,29,-10,19,0,00,-0,10,7,00,0,00,0,00,18,90,0,00,-2,47
9812,-0,20,0,29,-10,00,0,00,-0,10,7,00,0,00,0,00,17,11,0,00,-2,10
9828,0,00,0,29,-10,00,0,20,-0,10,7,00,0,00,14,00,15,60,0,00,0,32
9844,0,00,0,29,-10,09,0,20,-0,10,7,00,0,00,14,00,14,31,0,00,2,37
9860,-0,20,0,39,-10,09,0,00,0,00,-0,00,0,00,0,00,12,16,0,00,2,01
9876,-0,20,0,49,-10,19,0,00,0,10,-7,00,0,00,0,00,9,29,0,00,1,71
9892,0,00,0,49,-10,19,0,20,0,10,-7,00,0,00,14,00,6,84,0,00,3,56
9908,0,00,0,39,-10,29,0,20,0,00,-0,00,0,00,14,00,5,82,0,00,5,12
9924,-0,20,0,39,-10,29,0,00,0,00,-0,00,0,00,0,00,4,94,0,00,4,35
9940,-0,20,0,29,-10,19,0,00,-0,10,7,00,0,00,0,00,5,25,0,00,3,70
9956,-0,20,0,29,-10,19,0,00,-0,10,7,00,0,00,0,00,5,52,0,00,3,15
9972,-0,20,0,39,-10,09,0,00,0,00,-0,00,0,00,0,00,4,69,0,00,2,67
9988,-0,20,0,39,-10,09,0,00,0,00,-0,00,0,00,0,00,3,98,0,00,2,27
10004,0,00,0,49,-10,19,0,20,0,10,-7,00,0,00,14,00,2,34,0,00,4,03
10020,0,00,0,49,-10,09,0,20,0,10,-7,00,0,00,14,00,0,94,0,00,5,53
10036,-0,20,0,39,-10,09,0,00,0,00,-0,00,0,00,0,00,0,80,0,00,4,70
10052,-0,20,0,39,-10,09,0,00,0,00,-0,00,0,00,0,00,0,68,0,00,3,99
10068,-0,20,0,39,-10,09,0,00,0,00,-0,00,0,00,0,00,0,58,0,00,3,39
10084,-0,20,0,39,-10,09,0,00,0,00,-0,00,0,00,0,00,0,49,0,00,2,89
10100,0,00,0,39,-10,09,0,20,0,00,-0,00,0,00,14,00,0,42,0,00,4,55
10116,0,00,0,39,-10,09,0,20,0,00,-0,00,0,00,14,00,0,35,0,00,5,97
10132,0,00,0,39,-10,09,0,20,0,00,-0,00,0,00,14,00,0,30,0,00,7,17
10164,0,00,0,49,-9,90,0,20,0,10,-7,00,0,00,14,00,-0,79,0,00,8,20
10180,0,00,0,69,-10,09,0,20,0,30,-21,00,0,00,14,00,-3,83,0,00,9,07
10196,0,00,0,69,-10,09,0,20,0,30,-21,00,0,00,14,00,-6,40,0,00,9,81
10212,0,20,0,49,-10,19,0,40,0,10,-7,00,0,00,28,00,-6,49,0,00,12,54
10228,0,20,0,49,-10,19,0,40,0,10,-7,00,0,00,28,00,-6,57,0,00,14,86
10244,0,00,0,49,-10,19,0,20,0,10,-7,00,0,00,14,00,-6,63,0,00,14,73
10260,0,00,0,49,-10,19,0,20,0,10,-7,00,0,00,14,00,-6,69,0,00,14,62
10276,0,00,0,49,-10,19,0,20,0,10,-7,00,0,00,14,00,-6,73,0,00,14,53
10292,0,00,0,49,-10,19,0,20,0,10,-7,00,0,00,14,00,-6,77,0,00,14,45
10308,0,00,0,49,-10,19,0,20,0,10,-7,00,0,00,14,00,-6,81,0,00,14,38
10324,0,00,0,49,-10,00,0,20,0,10,-7,00,0,00,14,00,-6,84,0,00,14,32
10340,0,00,0,59,-10,00,0,20,0,20,-14,00,0,00,14,00,-7,91,0,00,14,27
10356,0,00,0,39,-10,09,0,20,0,00,-0,00,0,00,14,00,-6,72,0,00,14,23
10372,0,00,0,39,-10,09,0,20,0,00,-0,00,0,00,14,00,-5,72,0,00,14,20
10388,0,00,0,39,-10,09,0,20,0,00,-0,00,0,00,14,00,-4,86,0,00,14,17
10404,-0,20,0,39,-10,09,0,00,0,00,-0,00,0,00,0,00,-4,13,0,00,12,04
10420,0,00,0,59,-10,00,0,20,0,20,-14,00,0,00,14,00,-5,61,0,00,12,34
10437,0,00,0,59,-10,00,0,20,0,20,-14,00,0,00,14,00,-6,87,0,00,12,59
10464,0,20,0,49,-10,19,0,40,0,10,-7,00,0,00,28,00,-6,89,0,00,14,90
10481,0,20,0,49,-10,19,0,40,0,10,-7,00,0,00,28,00,-6,91,0,00,16,86
10497,0,20,0,49,-10,19,0,40,0,10,-7,00,0,00,28,00,-6,92,0,00,18,53
10514,0,20,0,49,-10,19,0,40,0,10,-7,00,0,00,28,00,-6,93,0,00,19,95
10531,0,20,0,49,-10,09,0,40,0,10,-7,00,0,00,28,00,-6,94,0,00,21,16
10547,-0,20,0,39,-10,09,0,00,0,00,-0,00,0,00,0,00,-5,90,0,00,17,99
10564,-0,20,0,39,-10,19,0,00,0,00,-0,00,0,00,0,00,-5,02,0,00,15,29
10580,0,00,0,49,-10,19,0,20,0,10,-7,00,0,00,14,00,-5,31,0,00,15,10
10596,0,00,0,39,-10,09,0,20,0,00,-0,00,0,00,14,00,-4,52,0,00,14,93
10612,0,00,0,39,-10,09,0,20,0,00,-0,00,0,00,14,00,-3,84,0,00,14,79
10628,0,00,0,59,-10,39,0,20,0,20,-14,00,0,00,14,00,-5,36,0,00,14,67
10644,-0,20,0,59,-10,39,0,00,0,20,-14,00,0,00,0,00,-6,66,0,00,12,47
10660,0,00,0,20,-9,90,0,20,-0,19,13,30,0,00,14,00,-3,66,0,00,12,70
10676,0,00,0,20,-9,90,0,20,-0,19,13,30,0,00,14,00,-1,12,0,00,12,90
10692,0,00,0,49,-9,90,0,20,0,10,-7,00,0,00,14,00,-2,00,0,00,13,06
10708,0,00,0,49,-9,90,0,20,0,10,-7,00,0,00,14,00,-2,75,0,00,13,20
10724,0,00,0,29,-10,00,0,20,-0,10,7,00,0,00,14,00,-1,29,0,00,13,32
10740,0,00,0,29,-10,39,0,20,-0,10,7,00,0,00,14,00,-0,05,0,00,13,42
10756,0,00,0,59,-10,39,0,20,0,20,-14,00,0,00,14,00,-2,14,0,00,13,51
10772,0,00,0,59,-10,19,0,20,0,20,-14,00,0,00,14,00,-3,92,0,00,13,58
10788,-0,20,0,49,-10,19,0,00,0,10,-7,00,0,00,0,00,-4,38,0,00,11,55
10804,-0,20,0,49,-10,09,0,00,0,10,-7,00,0,00,0,00,-4,77,0,00,9,81
10820,0,00,0,39,-10,09,0,20,0,00,-0,00,0,00,14,00,-4,06,0,00,10,44
10836,0,00,0,39,-10,09,0,20,0,00,-0,00,0,00,14,00,-3,45,0,00,10,98
10852,-0,20,0,39,-10,09,0,00,0,00,-0,00,0,00,0,00,-2,93,0,00,9,33
10868,-0,20,0,39,-10,09,0,00,0,00,-0,00,0,00,0,00,-2,49,0,00,7,93
10884,-0,20,0,39,-10,09,0,00,0,00,-0,00,0,00,0,00,-2,12,0,00,6,74
10900,-0,20,0,39,-10,09,0,00,0,00,-0,00,0,00,0,00,-1,80,0,00,5,73
10917,-0,20,0,39,-10,09,0,00,0,00,-0,00,0,00,0,00,-1,53,0,00,4,87
10948,-0,20,0,39,-10,29,0,00,0,00,-0,00,0,00,0,00,-1,30,0,00,4,14
10964,0,00,0,39,-10,09,0,20,0,00,-0,00,0,00,14,00,-1,11,0,00,5,62
10980,0,00,0,39,-9,90,0,20,0,00,-0,00,0,00,14,00,-0,94,0,00,6,88
10996,-0,20,0,49,-9,90,0,00,0,10,-7,00,0,00,0,00,-1,85,0,00,5,84
11012,-0,20,0,49,-10,19,0,00,0,10,-7,00,0,00,0,00,-2,62,0,00,4,97
11028,-0,20,0,29,-10,19,0,00,-0,10,7,00,0,00,0,00,-1,18,0,00,4,22
11044,-0,20,0,29,-10,09,0,00,-0,10,7,00,0,00,0,00,0,05,0,00,3,59
11060,0,00,0,39,-10,09,0,20,0,00,-0,00,0,00,14,00,0,05,0,00,5,15
11076,0,00,0,49,-10,19,0,20,0,10,-7,00,0,00,14,00,-1,01,0,00,6,48
11092,0,00,0,49,-10,19,0,20,0,10,-7,00,0,00,14,00,-1,91,0,00,7,61
11108,0,00,0,49,-10,19,0,20,0,10,-7,00,0,00,14,00,-2,67,0,00,8,57
11124,0,00,0,49,-10,19,0,20,0,10,-7,00,0,00,14,00,-3,32,0,00,9,38
11140,-0,20,0,59,-10,39,0,00,0,20,-14,00,0,00,0,00,-4,92,0,00,7,97
11156,-0,20,0,59,-10,39,0,00,0,20,-14,00,0,00,0,00,-6,28,0,00,6,78
11172,-0,20,0,29,-10,00,0,00,-0,10,7,00,0,00,0,00,-4,29,0,00,5,76
11188,-0,20,0,29,-10,00,0,00,-0,10,7,00,0,00,0,00,-2,60,0,00,4,90
11204,-0,20,0,39,-10,29,0,00,0,00,-0,00,0,00,0,00,-2,21,0,00,4,16
11220,-0,20,0,39,-10,49,0,00,0,00,-0,00,0,00,0,00,-1,88,0,00,3,54
11236,-0,20,0,49,-10,49,0,00,0,10,-7,00,0,00,0,00,-2,65,0,00,3,01
11252,-0,20,0,49,-10,09,0,00,0,10,-7,00,0,00,0,00,-3,30,0,00,2,56
11268,-0,20,0,39,-10,09,0,00,0,00,-0,00,0,00,0,00,-2,80,0,00,2,17
11284,-0,20,0,39,-9,90,0,00,0,00,-0,00,0,00,0,00,-2,38,0,00,1,85
11300,0,00,0,49,-9,90,0,20,0,10,-7,00,0,00,14,00,-3,08,0,00,3,67
11316,0,00,0,29,-10,19,0,20,-0,10,7,00,0,00,14,00,-1,56,0,00,5,22
11332,-0,20,0,29,-10,19,0,00,-0,10,7,00,0,00,0,00,-0,28,0,00,4,44
11348,-0,20,0,29,-10,19,0,00,-0,10,7,00,0,00,0,00,0,81,0,00,3,77
11380,-0,20,0,39,-10,09,0,00,0,00,-0,00,0,00,0,00,0,69,0,00,3,21
11396,-0,20,0,39,-10,09,0,00,0,00,-0,00,0,00,0,00,0,59,0,00,2,72
11412,-0,20,0,39,-10,09,0,00,0,00,-0,00,0,00,0,00,0,50,0,00,2,32
11428,-0,20,0,39,-10,09,0,00,0,00,-0,00,0,00,0,00,0,42,0,00,1,97
11444,-0,20,0,29,-10,19,0,00,-0,10,7,00,0,00,0,00,1,41,0,00,1,67
11460,-0,20,0,29,-10,29,0,00,-0,10,7,00,0,00,0,00,2,25,0,00,1,42
11476,-0,20,0,39,-10,29,0,00,0,00,-0,00,0,00,0,00,1,91,0,00,1,21
11492,-0,20,0,39,-10,09,0,00,0,00,-0,00,0,00,0,00,1,62,0,00,1,03
11508,-0,20,0,39,-10,09,0,00,0,00,-0,00,0,00,0,00,1,38,0,00,0,87
11524,-0,20,0,29,-10,00,0,00,-0,10,7,00,0,00,0,00,2,22,0,00,0,74
11540,-0,20,0,29,-10,00,0,00,-0,10,7,00,0,00,0,00,2,94,0,00,0,63
11556,-0,20,0,39,-10,09,0,00,0,00,-0,00,0,00,0,00,2,50,0,00,0,54
11572,-0,20,0,39,-10,09,0,00,0,00,-0,00,0,00,0,00,2,12,0,00,0,46
11588,-0,20,0,39,-10,29,0,00,0,00,-0,00,0,00,0,00,1,81,0,00,0,39
11604,0,00,0,39,-10,29,0,20,0,00,-0,00,0,00,14,00,1,53,0,00,2,43
11620,-0,20,0,39,-10,09,0,00,0,00,-0,00,0,00,0,00,1,30,0,00,2,06
11636,-0,20,0,39,-10,09,0,00,0,00,-0,00,0,00,0,00,1,11,0,00,1,76
11652,-0,20,0,29,-10,00,0,00,-0,10,7,00,0,00,0,00,1,99,0,00,1,49
11668,-0,20,0,29,-10,00,0,00,-0,10,7,00,0,00,0,00,2,74,0,00,1,27
11684,-0,20,0,39,-10,09,0,00,0,00,-0,00,0,00,0,00,2,33,0,00,1,08
11700,-0,20,0,39,-10,29,0,00,0,00,-0,00,0,00,0,00,1,98,0,00,0,92
11716,-0,20,0,39,-10,29,0,00,0,00,-0,00,0,00,0,00,1,68,0,00,0,78
11732,-0,20,0,39,-10,29,0,00,0,00,-0,00,0,00,0,00,1,43,0,00,0,66
11764,-0,20,0,39,-10,29,0,00,0,00,-0,00,0,00,0,00,1,22,0,00,0,56
11780,-0,20,0,39,-10,29,0,00,0,00,-0,00,0,00,0,00,1,03,0,00,0,48
11796,-0,20,0,39,-10,09,0,00,0,00,-0,00,0,00,0,00,0,88,0,00,0,41
11812,-0,20,0,39,-10,09,0,00,0,00,-0,00,0,00,0,00,0,75,0,00,0,35
11828,-0,20,0,49,-9,90,0,00,0,10,-7,00,0,00,0,00,-0,41,0,00,0,29
11844,-0,20,0,49,-9,90,0,00,0,10,-7,00,0,00,0,00,-1,40,0,00,0,25
11860,-0,20,0,39,-10,09,0,00,0,00,-0,00,0,00,0,00,-1,19,0,00,0,21
11876,-0,20,0,39,-10,09,0,00,0,00,-0,00,0,00,0,00,-1,01,0,00,0,18
11892,-0,20,0,39,-10,29,0,00,0,00,-0,00,0,00,0,00,-0,86,0,00,0,15
11908,-0,20,0,39,-10,29,0,00,0,00,-0,00,0,00,0,00,-0,73,0,00,0,13
11924,-0,20,0,29,-10,19,0,00,-0,10,7,00,0,00,0,00,0,43,0,00,0,11
11940,-0,20,0,29,-10,19,0,00,-0,10,7,00,0,00,0,00,1,41,0,00,0,09
11956,-0,20,0,39,-10,09,0,00,0,00,-0,00,0,00,0,00,1,20,0,00,0,08
11972,-0,20,0,39,-10,19,0,00,0,00,-0,00,0,00,0,00,1,02,0,00,0,07
11988,-0,20,0,29,-10,19,0,00,-0,10,7,00,0,00,0,00,1,92,0,00,0,06
12004,-0,20,0,29,-10,09,0,00,-0,10,7,00,0,00,0,00,2,68,0,00,0,05
12020,-0,20,0,39,-10,09,0,00,0,00,-0,00,0,00,0,00,2,28,0,00,0,05
12036,-0,20,0,39,-10,09,0,00,0,00,-0,00,0,00,0,00,1,94,0,00,0,05
12052,-0,20,0,39,-10,09,0,00,0,00,-0,00,0,00,0,00,1,65,0,00,0,05
12068,-0,20,0,39,-10,09,0,00,0,00,-0,00,0,00,0,00,1,40,0,00,0,05
12084,-0,20,0,39,-10,09,0,00,0,00,-0,00,0,00,0,00,1,19,0,00,0,05
12100,-0,20,0,39,-10,09,0,00,0,00,-0,00,0,00,0,00,1,01,0,00,0,05
12116,-0,20,0,39,-10,09,0,00,0,00,-0,00,0,00,0,00,0,86,0,00,0,05
12132,-0,20,0,29,-10,00,0,00,-0,10,7,00,0,00,0,00,1,78,0,00,0,05
12164,-0,20,0,39,-10,09,0,00,0,00,-0,00,0,00,0,00,1,51,0,00,0,05
12180,-0,20,0,39,-10,09,0,00,0,00,-0,00,0,00,0,00,1,29,0,00,0,05
12196,-0,20,0,39,-10,09,0,00,0,00,-0,00,0,00,0,00,1,09,0,00,0,05
12212,-0,20,0,39,-10,09,0,00,0,00,-0,00,0,00,0,00,0,93,0,00,0,05
12228,-0,20,0,39,-10,09,0,00,0,00,-0,00,0,00,0,00,0,79,0,00,0,05
12244,-0,20,0,39,-10,09,0,00,0,00,-0,00,0,00,0,00,0,67,0,00,0,05
12260,-0,20,0,39,-10,09,0,00,0,00,-0,00,0,00,0,00,0,57,0,00,0,05
12276,-0,20,0,29,-10,19,0,00,-0,10,7,00,0,00,0,00,1,54,0,00,0,05
12292,-0,20,0,29,-10,19,0,00,-0,10,7,00,0,00,0,00,2,35,0,00,0,05
12308,-0,20,0,39,-10,29,0,00,0,00,-0,00,0,00,0,00,2,00,0,00,0,05
12324,-0,20,0,39,-10,29,0,00,0,00,-0,00,0,00,0,00,1,70,0,00,0,05
12341,-0,20,0,49,-10,19,0,00,0,10,-7,00,0,00,0,00,0,40,0,00,0,05
12364,-0,20,0,49,-10,09,0,00,0,10,-7,00,0,00,0,00,-0,71,0,00,0,05
12381,-0,20,0,39,-10,09,0,00,0,00,-0,00,0,00,0,00,-0,61,0,00,0,05
12398,-0,20,0,39,-10,09,0,00,0,00,-0,00,0,00,0,00,-0,52,0,00,0,05
12414,-0,20,0,39,-10,09,0,00,0,00,-0,00,0,00,0,00,-0,44,0,00,0,05
12431,-0,20,0,39,-10,09,0,00,0,00,-0,00,0,00,0,00,-0,37,0,00,0,05
12447,-0,20,0,39,-10,09,0,00,0,00,-0,00,0,00,0,00,-0,32,0,00,0,05
12464,-0,20,0,29,-10,19,0,00,-0,10,7,00,0,00,0,00,0,78,0,00,0,05
12481,-0,20,0,29,-10,09,0,00,-0,10,7,00,0,00,0,00,1,71,0,00,0,05
12497,-0,20,0,39,-10,09,0,00,0,00,-0,00,0,00,0,00,1,46,0,00,0,05
12514,-0,20,0,39,-9,90,0,00,0,00,-0,00,0,00,0,00,1,24,0,00,0,05
12531,-0,20,0,20,-9,90,0,00,-0,19,13,30,0,00,0,00,3,05,0,00,0,05
12547,-0,20,0,49,-10,49,0,00,0,10,-7,00,0,00,0,00,1,54,0,00,0,05
12564,-0,20,0,49,-10,49,0,00,0,10,-7,00,0,00,0,00,0,26,0,00,0,05
12580,-0,20,0,39,-10,29,0,00,0,00,-0,00,0,00,0,00,0,22,0,00,0,05
12596,-0,20,0,39,-10,29,0,00,0,00,-0,00,0,00,0,00,0,19,0,00,0,05
12612,-0,20,0,39,-10,29,0,00,0,00,-0,00,0,00,0,00,0,16,0,00,0,05
12628,-0,20,0,39,-10,29,0,00,0,00,-0,00,0,00,0,00,0,14,0,00,0,05
12644,-0,20,0,29,-10,00,0,00,-0,10,7,00,0,00,0,00,1,17,0,00,0,05
12660,-0,20,0,29,-10,19,0,00,-0,10,7,00,0,00,0,00,2,04,0,00,0,05
12676,-0,20,0,29,-10,19,0,00,-0,10,7,00,0,00,0,00,2,78,0,00,0,05
12692,-0,20,0,29,-10,09,0,00,-0,10,7,00,0,00,0,00,3,42,0,00,0,05
12708,-0,20,0,39,-10,09,0,00,0,00,-0,00,0,00,0,00,2,90,0,00,0,05
12724,-0,20,0,39,-10,29,0,00,0,00,-0,00,0,00,0,00,2,47,0,00,0,05
12740,-0,20,0,39,-10,29,0,00,0,00,-0,00,0,00,0,00,2,10,0,00,0,05
12756,-0,20,0,29,-10,19,0,00,-0,10,7,00,0,00,0,00,2,83,0,00,0,05
12772,-0,20,0,29,-10,19,0,00,-0,10,7,00,0,00,0,00,3,46,0,00,0,05
12788,-0,20,0,39,-10,09,0,00,0,00,-0,00,0,00,0,00,2,94,0,00,0,05
12804,-0,20,0,39,-10,09,0,00,0,00,-0,00,0,00,0,00,2,50,0,00,0,05
12820,-0,20,0,29,-10,19,0,00,-0,10,7,00,0,00,0,00,3,17,0,00,0,05
12836,-0,20,0,29,-10,19,0,00,-0,10,7,00,0,00,0,00,3,75,0,00,0,05
12852,-0,20,0,29,-10,19,0,00,-0,10,7,00,0,00,0,00,4,24,0,00,0,05
12868,-0,20,0,29,-10,19,0,00,-0,10,7,00,0,00,0,00,4,65,0,00,0,05
12884,-0,20,0,20,-10,09,0,00,-0,19,13,30,0,00,0,00,5,95,0,00,0,05
12900,-0,20,0,20,-10,29,0,00,-0,19,13,30,0,00,0,00,7,05,0,00,0,05
12916,-0,20,0,39,-10,29,0,00,0,00,-0,00,0,00,0,00,5,99,0,00,0,05
12932,-0,20,0,39,-10,19,0,00,0,00,-0,00,0,00,0,00,5,09,0,00,0,05
12948,-0,20,0,29,-10,19,0,00,-0,10,7,00,0,00,0,00,5,38,0,00,0,05
12980,-0,29,0,49,-10,88,-0,09,0,10,-7,00,0,00,-6,30,3,52,0,00,-0,90
12996,-0,29,0,49,-10,88,-0,09,0,10,-7,00,0,00,-6,30,1,94,0,00,-1,71
13012,-0,29,0,49,-10,88,-0,09,0,10,-7,00,0,00,-6,30,0,60,0,00,-2,40
13028,-0,29,-0,10,-10,00,-0,09,-0,49,34,30,0,00,-6,30,5,66,0,00,-2,99
13044,-0,20,-0,10,-10,00,0,00,-0,49,34,30,0,00,0,00,9,95,0,00,-2,54
13060,-0,20,-0,10,-10,00,0,00,-0,49,34,30,0,00,0,00,13,61,0,00,-2,16
13076,-0,20,-0,10,-10,00,0,00,-0,49,34,30,0,00,0,00,16,71,0,00,-1,83
13092,0,00,-0,39,-9,21,0,20,-0,78,54,60,0,00,14,00,22,39,0,00,0,54
13108,0,00,-0,39,-9,21,0,20,-0,78,54,60,0,00,14,00,27,22,0,00,2,56
13124,-0,20,-0,10,-10,39,0,00,-0,49,34,30,0,00,0,00,28,29,0,00,2,18
13140,-0,20,-0,10,-10,39,0,00,-0,49,34,30,0,00,0,00,29,19,0,00,1,85
13156,-0,20,-0,39,-10,58,0,00,-0,78,54,60,0,00,0,00,33,00,0,00,1,57
13172,-0,20,-0,39,-10,68,0,00,-0,78,54,60,0,00,0,00,36,24,0,00,1,34
13188,-0,20,-0,10,-10,68,0,00,-0,49,34,30,0,00,0,00,35,95,0,00,1,14
13204,-0,20,-0,10,-10,68,0,00,-0,49,34,30,0,00,0,00,35,70,0,00,0,97
13220,-0,20,-0,10,-10,68,0,00,-0,49,34,30,0,00,0,00,35,49,0,00,0,82
13236,-0,20,-0,59,-9,90,0,00,-0,98,68,60,0,00,0,00,40,46,0,00,0,70
13252,-0,20,-0,59,-9,90,0,00,-0,98,68,60,0,00,0,00,44,68,0,00,0,59
13268,-0,20,-0,69,-10,00,0,00,-1,08,75,60,0,00,0,00,49,32,0,00,0,50
13284,-0,20,-0,69,-10,00,0,00,-1,08,75,60,0,00,0,00,53,26,0,00,0,43
13300,-0,20,-0,78,-10,29,0,00,-1,17,81,90,0,00,0,00,57,56,0,00,0,36
13316,0,00,-0,78,-10,29,0,20,-1,17,81,90,0,00,14,00,61,21,0,00,2,41
13332,-0,20,-0,78,-10,29,0,00,-1,17,81,90,0,00,0,00,64,31,0,00,2,05
13348,-0,20,-0,78,-10,29,0,00,-1,17,81,90,0,00,0,00,66,95,0,00,1,74
13380,-0,20,-0,98,-9,70,0,00,-1,37,95,90,0,00,0,00,71,29,0,00,1,48
13396,-0,20,-0,98,-9,70,0,00,-1,37,95,90,0,00,0,00,74,98,0,00,1,26
13412,-0,20,-0,98,-9,80,0,00,-1,37,95,90,0,00,0,00,78,12,0,00,1,07
13428,-0,20,-0,88,-9,80,0,00,-1,27,88,90,0,00,0,00,79,74,0,00,0,91
13444,-0,20,-0,88,-10,00,0,00,-1,27,88,90,0,00,0,00,81,11,0,00,0,77
13460,0,00,-0,88,-10,00,0,20,-1,27,88,90,0,00,14,00,82,28,0,00,2,76
13476,0,00,-0,88,-10,00,0,20,-1,27,88,90,0,00,14,00,83,27,0,00,4,44
13492,0,00,-0,88,-10,00,0,20,-1,27,88,90,0,00,14,00,84,12,0,00,5,88
13508,0,00,-0,69,-10,19,0,20,-1,08,75,60,0,00,14,00,82,84,0,00,7,10
13524,-0,20,-0,69,-10,19,0,00,-1,08,75,60,0,00,0,00,81,75,0,00,6,03
13540,-0,20,-0,49,-10,68,0,00,-0,88,61,60,0,00,0,00,78,73,0,00,5,13
13556,-0,20,-0,49,-10,68,0,00,-0,88,61,60,0,00,0,00,76,16,0,00,4,36
13572,-0,29,-0,69,-10,19,-0,09,-1,08,75,60,0,00,-6,30,76,08,0,00,2,76
13588,-0,29,-0,69,-10,19,-0,09,-1,08,75,60,0,00,-6,30,76,01,0,00,1,40
13604,-0,29,-0,69,-10,19,-0,09,-1,08,75,60,0,00,-6,30,75,94,0,00,0,24
13620,-0,29,-0,69,-10,29,-0,09,-1,08,75,60,0,00,-6,30,75,89,0,00,-0,74
13636,-0,20,-0,49,-10,29,0,00,-0,88,61,60,0,00,0,00,73,75,0,00,-0,63
13664,-0,20,-0,49,-10,49,0,00,-0,88,61,60,0,00,0,00,71,93,0,00,-0,53
13681,-0,20,-0,49,-10,00,0,00,-0,88,61,60,0,00,0,00,70,38,0,00,-0,45
13697,-0,20,-0,69,-10,00,0,00,-1,08,75,60,0,00,0,00,71,16,0,00,-0,38
13714,-0,20,-0,69,-9,41,0,00,-1,08,75,60,0,00,0,00,71,83,0,00,-0,33
13730,-0,29,-0,59,-9,41,-0,09,-0,98,68,60,0,00,-6,30,71,34,0,00,-1,22
13747,-0,29,-0,59,-9,41,-0,09,-0,98,68,60,0,00,-6,30,70,93,0,00,-1,98
13763,-0,20,-0,59,-9,41,0,00,-0,98,68,60,0,00,0,00,70,58,0,00,-1,69
13779,-0,20,-0,10,-10,00,0,00,-0,49,34,30,0,00,0,00,65,14,0,00,-1,43
13795,-0,20,-0,10,-10,00,0,00,-0,49,34,30,0,00,0,00,60,51,0,00,-1,22
13811,-0,20,0,29,-10,88,0,00,-0,10,7,00,0,00,0,00,52,49,0,00,-1,04
13827,-0,20,0,29,-10,88,0,00,-0,10,7,00,0,00,0,00,45,66,0,00,-0,88
13843,-0,20,0,29,-10,88,0,00,-0,10,7,00,0,00,0,00,39,86,0,00,-0,75
13859,-0,20,0,29,-10,19,0,00,-0,10,7,00,0,00,0,00,34,93,0,00,-0,64
13875,-0,20,0,29,-10,19,0,00,-0,10,7,00,0,00,0,00,30,74,0,00,-0,54
13891,-0,20,0,29,-10,19,0,00,-0,10,7,00,0,00,0,00,27,18,0,00,-0,46
13907,-0,20,0,29,-10,19,0,00,-0,10,7,00,0,00,0,00,24,16,0,00,-0,39
13923,-0,20,0,29,-10,19,0,00,-0,10,7,00,0,00,0,00,21,58,0,00,-0,33
13939,-0,20,0,29,-10,19,0,00,-0,10,7,00,0,00,0,00,19,39,0,00,-0,28
13955,-0,20,0,29,-10,19,0,00,-0,10,7,00,0,00,0,00,17,54,0,00,-0,24
13971,-0,20,0,29,-10,19,0,00,-0,10,7,00,0,00,0,00,15,96,0,00,-0,20
13987,-0,20,0,49,-10,19,0,00,0,10,-7,00,0,00,0,00,12,51,0,00,-0,17
14003,-0,20,0,49,-10,19,0,00,0,10,-7,00,0,00,0,00,9,59,0,00,-0,15
14019,-0,20,0,59,-10,39,0,00,0,20,-14,00,0,00,0,00,6,05,0,00,-0,13
14035,-0,20,0,59,-10,39,0,00,0,20,-14,00,0,00,0,00,3,04,0,00,-0,11
14051,-0,20,0,49,-10,19,0,00,0,10,-7,00,0,00,0,00,1,53,0,00,-0,09
14067,-0,20,0,49,-10,19,0,00,0,10,-7,00,0,00,0,00,0,25,0,00,-0,08
14083,-0,20,0,59,-10,00,0,00,0,20,-14,00,0,00,0,00,-1,88,0,00,-0,07
14099,-0,20,0,59,-10,00,0,00,0,20,-14,00,0,00,0,00,-3,70,0,00,-0,06
14115,-0,20,0,39,-10,09,0,00,0,00,-0,00,0,00,0,00,-3,15,0,00,-0,05
14131,-0,20,0,39,-10,19,0,00,0,00,-0,00,0,00,0,00,-2,67,0,00,-0,05
14163,-0,20,0,49,-10,19,0,00,0,10,-7,00,0,00,0,00,-3,32,0,00,-0,05
14179,-0,20,0,49,-10,19,0,00,0,10,-7,00,0,00,0,00,-3,87,0,00,-0,05
14195,-0,20,0,39,-10,09,0,00,0,00,-0,00,0,00,0,00,-3,29,0,00,-0,05
14211,-0,20,0,39,-10,09,0,00,0,00,-0,00,0,00,0,00,-2,80,0,00,-0,05
14227,-0,20,0,39,-10,09,0,00,0,00,-0,00,0,00,0,00,-2,38,0,00,-0,05
14243,-0,29,0,39,-10,09,-0,09,0,00,-0,00,0,00,-6,30,-2,02,0,00,-0,99
14259,-0,29,0,49,-9,90,-0,09,0,10,-7,00,0,00,-6,30,-2,77,0,00,-1,78
14275,-0,20,0,49,-9,90,0,00,0,10,-7,00,0,00,0,00,-3,40,0,00,-1,52
14294,-0,20,0,59,-10,00,0,00,0,20,-14,00,0,00,0,00,-4,99,0,00,-1,29
14318,-0,20,0,59,-10,00,0,00,0,20,-14,00,0,00,0,00,-6,34,0,00,-1,09
14334,-0,20,0,59,-10,00,0,00,0,20,-14,00,0,00,0,00,-7,49,0,00,-0,93
14350,-0,20,0,78,-10,29,0,00,0,39,-27,30,0,00,0,00,-10,46,0,00,-0,79
14366,-0,20,0,78,-10,29,0,00,0,39,-27,30,0,00,0,00,-12,99,0,00,-0,67
14382,-0,20,0,49,-10,19,0,00,0,10,-7,00,0,00,0,00,-12,09,0,00,-0,57
14398,-0,20,0,49,-10,19,0,00,0,10,-7,00,0,00,0,00,-11,33,0,00,-0,49
14413,-0,20,0,29,-10,00,0,00,-0,10,7,00,0,00,0,00,-8,58,0,00,-0,41
14430,-0,20,0,29,-10,09,0,00,-0,10,7,00,0,00,0,00,-6,24,0,00,-0,35
14446,-0,29,0,39,-10,09,-0,09,0,00,-0,00,0,00,-6,30,-5,31,0,00,-1,24
14463,-0,29,0,39,-10,09,-0,09,0,00,-0,00,0,00,-6,30,-4,51,0,00,-2,00
14480,-0,29,0,39,-10,09,-0,09,0,00,-0,00,0,00,-6,30,-3,83,0,00,-2,65
14496,-0,29,0,59,-10,00,-0,09,0,20,-14,00,0,00,-6,30,-5,36,0,00,-3,19
14514,-0,20,0,59,-10,00,0,00,0,20,-14,00,0,00,0,00,-6,65,0,00,-2,72
14530,-0,20,0,39,-10,09,0,00,0,00,-0,00,0,00,0,00,-5,66,0,00,-2,31
14547,-0,20,0,39,-10,09,0,00,0,00,-0,00,0,00,0,00,-4,81,0,00,-1,96
14563,-0,20,0,39,-10,09,0,00,0,00,-0,00,0,00,0,00,-4,09,0,00,-1,67
14579,-0,20,0,39,-10,39,0,00,0,00,-0,00,0,00,0,00,-3,47,0,00,-1,42
14595,-0,29,0,59,-10,39,-0,09,0,20,-14,00,0,00,-6,30,-5,05,0,00,-2,15
14611,-0,29,0,59,-10,78,-0,09,0,20,-14,00,0,00,-6,30,-6,39,0,00,-2,77
14627,-0,20,0,59,-10,78,0,00,0,20,-14,00,0,00,0,00,-7,54,0,00,-2,36
14643,-0,20,0,59,-10,19,0,00,0,20,-14,00,0,00,0,00,-8,51,0,00,-2,00
14659,-0,29,0,29,-10,19,-0,09,-0,10,7,00,0,00,-6,30,-6,18,0,00,-2,65
14675,-0,29,0,29,-10,19,-0,09,-0,10,7,00,0,00,-6,30,-4,20,0,00,-3,20
14691,-0,29,0,29,-10,19,-0,09,-0,10,7,00,0,00,-6,30,-2,52,0,00,-3,66
14707,-0,29,0,39,-10,29,-0,09,0,00,-0,00,0,00,-6,30,-2,14,0,00,-4,06
14723,0,00,0,39,-10,29,0,20,0,00,-0,00,0,00,14,00,-1,82,0,00,-1,35
14739,0,00,0,39,-10,58,0,20,0,00,-0,00,0,00,14,00,-1,55,0,00,0,95
14756,-0,20,0,39,-10,58,0,00,0,00,-0,00,0,00,0,00,-1,32,0,00,0,81
14780,-0,20,0,39,-10,58,0,00,0,00,-0,00,0,00,0,00,-1,12,0,00,0,69
14796,-0,20,0,00,-10,49,0,00,-0,39,27,30,0,00,0,00,3,14,0,00,0,59
14813,-0,20,0,00,-10,49,0,00,-0,39,27,30,0,00,0,00,6,77,0,00,0,50
14830,-0,20,-0,29,-9,70,0,00,-0,68,47,60,0,00,0,00,12,89,0,00,0,42
14847,-0,20,-0,29,-9,70,0,00,-0,68,47,60,0,00,0,00,18,10,0,00,0,36
14863,-0,29,-0,20,-10,09,-0,09,-0,59,41,30,0,00,-6,30,21,58,0,00,-0,64
14880,-0,29,-0,20,-10,68,-0,09,-0,59,41,30,0,00,-6,30,24,54,0,00,-1,49
14896,-0,29,-0,29,-10,68,-0,09,-0,68,47,60,0,00,-6,30,28,00,0,00,-2,21
14913,-0,29,-0,29,-9,70,-0,09,-0,68,47,60,0,00,-6,30,30,94,0,00,-2,82
14930,-0,20,-0,78,-9,70,0,00,-1,17,81,90,0,00,0,00,38,58,0,00,-2,40
14946,-0,20,-0,49,-10,29,0,00,-0,88,61,60,0,00,0,00,42,03,0,00,-2,04
14963,-0,20,-0,49,-10,29,0,00,-0,88,61,60,0,00,0,00,44,97,0,00,-1,73
14979,-0,20,-0,98,-10,09,0,00,-1,37,95,90,0,00,0,00,52,61,0,00,-1,47
14995,-0,20,-0,98,-10,09,0,00,-1,37,95,90,0,00,0,00,59,10,0,00,-1,25
15011,-0,20,-1,08,-9,80,0,00,-1,47,102,90,0,00,0,00,65,67,0,00,-1,06
15027,-0,20,-1,08,-9,80,0,00,-1,47,102,90,0,00,0,00,71,26,0,00,-0,91
15043,-0,20,-1,18,-9,90,0,00,-1,57,109,90,0,00,0,00,77,05,0,00,-0,77
15059,-0,20,-1,18,-9,90,0,00,-1,57,109,90,0,00,0,00,81,98,0,00,-0,65
15075,-0,20,-1,37,-9,80,0,00,-1,76,123,20,0,00,0,00,88,16,0,00,-0,56
15091,-0,20,-1,37,-9,80,0,00,-1,76,123,20,0,00,0,00,90,00,0,00,-0,47
15107,-0,20,-1,37,-9,80,0,00,-1,76,123,20,0,00,0,00,90,00,0,00,-0,40
15123,-0,20,-1,37,-10,09,0,00,-1,76,123,20,0,00,0,00,90,00,0,00,-0,34
15139,-0,20,-1,47,-10,09,0,00,-1,86,130,20,0,00,0,00,90,00,0,00,-0,29
15155,-0,20,-1,37,-10,39,0,00,-1,76,123,20,0,00,0,00,90,00,0,00,-0,25
15171,-0,20,-1,37,-10,39,0,00,-1,76,123,20,0,00,0,00,90,00,0,00,-0,21
15187,-0,20,-1,37,-10,39,0,00,-1,76,123,20,0,00,0,00,90,00,0,00,-0,18
15203,-0,20,-1,37,-10,39,0,00,-1,76,123,20,0,00,0,00,90,00,0,00,-0,15
15219,0,00,-1,37,-10,58,0,20,-1,76,123,20,0,00,14,00,90,00,0,00,1,97
15235,0,00,-1,37,-10,58,0,20,-1,76,123,20,0,00,14,00,90,00,0,00,3,78
15251,-0,20,-1,86,-9,80,0,00,-2,25,157,50,0,00,0,00,90,00,0,00,3,21
15267,-0,20,-1,86,-9,80,0,00,-2,25,157,50,0,00,0,00,90,00,0,00,2,73
15283,-0,20,-1,57,-10,19,0,00,-1,96,137,20,0,00,0,00,90,00,0,00,2,32
15300,-0,20,-1,57,-10,49,0,00,-1,96,137,20,0,00,0,00,90,00,0,00,1,97
15330,-0,20,-1,67,-10,29,0,00,-2,06,144,20,0,00,0,00,90,00,0,00,1,68
15349,-0,20,-1,86,-10,29,0,00,-2,25,157,50,0,00,0,00,90,00,0,00,1,42
15365,-0,20,-2,25,-9,51,0,00,-2,64,184,80,0,00,0,00,90,00,0,00,1,21
15382,-0,20,-2,25,-9,51,0,00,-2,64,184,80,0,00,0,00,90,00,0,00,1,03
15398,-0,20,-2,25,-9,80,0,00,-2,64,184,80,0,00,0,00,90,00,0,00,0,87
15414,0,00,-2,25,-9,80,0,20,-2,64,184,80,0,00,14,00,90,00,0,00,2,84
15430,-0,20,-2,35,-10,19,0,00,-2,74,191,80,0,00,0,00,90,00,0,00,2,42
15447,-0,20,-2,35,-10,19,0,00,-2,74,191,80,0,00,0,00,90,00,0,00,2,05
15463,-0,20,-2,55,-9,21,0,00,-2,94,205,80,0,00,0,00,90,00,0,00,1,75
15482,-0,20,-2,55,-9,11,0,00,-2,94,205,80,0,00,0,00,90,00,0,00,1,48
15498,-0,20,-2,45,-9,11,0,00,-2,84,198,80,0,00,0,00,90,00,0,00,1,26
15519,-0,20,-2,55,-9,60,0,00,-2,94,205,80,0,00,0,00,90,00,0,00,1,07
15538,-0,20,-2,55,-9,60,0,00,-2,94,205,80,0,00,0,00,90,00,0,00,0,91
15558,-0,20,-2,45,-10,09,0,00,-2,84,198,80,0,00,0,00,90,00,0,00,0,77
15574,-0,20,-2,45,-9,90,0,00,-2,84,198,80,0,00,0,00,90,00,0,00,0,66
15599,0,00,-2,35,-9,90,0,20,-2,74,191,80,0,00,14,00,90,00,0,00,2,66
15643,0,00,-2,84,-8,43,0,20,-3,23,226,10,0,00,14,00,90,00,0,00,4,36
15663,-0,20,-2,84,-7,74,0,00,-3,23,226,10,0,00,0,00,90,00,0,00,3,71
15684,-0,29,-2,74,-7,74,-0,09,-3,13,219,10,0,00,-6,30,90,00,0,00,2,21
15714,-0,20,-1,67,-9,51,0,00,-2,06,144,20,0,00,0,00,90,00,0,00,1,87
15738,-0,29,-0,88,-11,47,-0,09,-1,27,88,90,0,00,-6,30,90,00,0,00,0,65
15762,-0,29,-0,98,-11,07,-0,09,-1,37,95,90,0,00,-6,30,90,00,0,00,-0,39
15789,-0,29,-0,98,-11,07,-0,09,-1,37,95,90,0,00,-6,30,90,00,0,00,-1,28
15816,-0,29,-0,59,-10,78,-0,09,-0,98,68,60,0,00,-6,30,90,00,0,00,-2,03
15842,-0,20,-0,59,-11,27,0,00,-0,98,68,60,0,00,0,00,90,00,0,00,-1,73
15865,-0,29,-0,39,-11,27,-0,09,-0,78,54,60,0,00,-6,30,90,00,0,00,-2,41
15884,-0,20,-0,29,-10,49,0,00,-0,68,47,60,0,00,0,00,90,00,0,00,-2,05
15912,-0,20,-0,29,-9,51,0,00,-0,68,47,60,0,00,0,00,90,00,0,00,-1,74
15960,-0,20,-0,29,-9,70,0,00,-0,68,47,60,0,00,0,00,90,00,0,00,-1,48
15988,-0,20,-0,20,-10,58,0,00,-0,59,41,30,0,00,0,00,84,50,0,00,-1,26
16022,-0,20,0,00,-10,88,0,00,-0,39,27,30,0,00,0,00,75,92,0,00,-1,07
16066,-0,20,0,10,-10,39,0,00,-0,29,20,30,0,00,0,00,67,58,0,00,-0,91
16092,-0,29,0,10,-10,19,-0,09,-0,29,20,30,0,00,-6,30,60,49,0,00,-1,72
16108,-0,20,0,10,-10,19,0,00,-0,29,20,30,0,00,0,00,54,46,0,00,-1,46
16131,-0,20,0,10,-10,19,0,00,-0,29,20,30,0,00,0,00,49,34,0,00,-1,24
16147,-0,20,0,10,-10,19,0,00,-0,29,20,30,0,00,0,00,44,98,0,00,-1,06
16163,-0,20,0,10,-10,19,0,00,-0,29,20,30,0,00,0,00,41,28,0,00,-0,90
16179,-0,20,0,10,-10,00,0,00,-0,29,20,30,0,00,0,00,38,13,0,00,-0,76
16195,-0,20,0,10,-10,00,0,00,-0,29,20,30,0,00,0,00,35,46,0,00,-0,65
16211,-0,20,0,20,-10,29,0,00,-0,19,13,30,0,00,0,00,32,13,0,00,-0,55
16227,-0,20,0,20,-10,29,0,00,-0,19,13,30,0,00,0,00,29,31,0,00,-0,47
16243,-0,20,0,20,-10,29,0,00,-0,19,13,30,0,00,0,00,26,91,0,00,-0,40
16259,-0,20,0,20,-10,29,0,00,-0,19,13,30,0,00,0,00,24,87,0,00,-0,34
16275,-0,29,0,10,-10,00,-0,09,-0,29,20,30,0,00,-6,30,24,18,0,00,-1,23
16291,-0,29,0,10,-10,09,-0,09,-0,29,20,30,0,00,-6,30,23,60,0,00,-1,99
16307,-0,20,0,20,-10,09,0,00,-0,19,13,30,0,00,0,00,22,05,0,00,-1,69
16323,-0,20,0,20,-10,68,0,00,-0,19,13,30,0,00,0,00,20,74,0,00,-1,44
16339,-0,29,0,49,-10,68,-0,09,0,10,-7,00,0,00,-6,30,16,58,0,00,-2,17
16355,-0,29,0,20,-10,09,-0,09,-0,19,13,30,0,00,-6,30,16,09,0,00,-2,79
16371,-0,20,0,20,-10,09,0,00,-0,19,13,30,0,00,0,00,15,67,0,00,-2,37
16387,-0,20,0,29,-10,19,0,00,-0,10,7,00,0,00,0,00,14,37,0,00,-2,01
16403,-0,20,0,29,-10,19,0,00,-0,10,7,00,0,00,0,00,13,26,0,00,-1,71
16419,-0,20,0,20,-10,09,0,00,-0,19,13,30,0,00,0,00,13,26,0,00,-1,46
16435,-0,20,0,20,-10,09,0,00,-0,19,13,30,0,00,0,00,13,26,0,00,-1,24
16451,-0,20,0,20,-10,09,0,00,-0,19,13,30,0,00,0,00,13,26,0,00,-1,05
16467,-0,20,0,20,-10,09,0,00,-0,19,13,30,0,00,0,00,13,26,0,00,-0,89
16483,-0,20,0,20,-10,09,0,00,-0,19,13,30,0,00,0,00,13,26,0,00,-0,76
16499,-0,20,0,20,-10,09,0,00,-0,19,13,30,0,00,0,00,13,26,0,00,-0,65
16515,-0,20,0,20,-10,29,0,00,-0,19,13,30,0,00,0,00,13,26,0,00,-0,55
16531,-0,20,0,20,-10,29,0,00,-0,19,13,30,0,00,0,00,13,26,0,00,-0,47
16563,-0,20,0,20,-10,09,0,00,-0,19,13,30,0,00,0,00,13,26,0,00,-0,40
16580,-0,20,0,20,-10,09,0,00,-0,19,13,30,0,00,0,00,13,26,0,00,-0,34
16596,-0,20,0,29,-10,19,0,00,-0,10,7,00,0,00,0,00,12,32,0,00,-0,29
16612,-0,29,0,29,-10,19,-0,09,-0,10,7,00,0,00,-6,30,11,53,0,00,-1,19
16628,-0,29,0,29,-10,19,-0,09,-0,10,7,00,0,00,-6,30,10,85,0,00,-1,96
16644,-0,20,0,29,-10,19,0,00,-0,10,7,00,0,00,0,00,10,27,0,00,-1,66
16660,-0,20,0,20,-10,09,0,00,-0,19,13,30,0,00,0,00,10,72,0,00,-1,41
16676,-0,20,0,20,-10,09,0,00,-0,19,13,30,0,00,0,00,11,11,0,00,-1,20
16692,-0,20,0,29,-10,19,0,00,-0,10,7,00,0,00,0,00,10,49,0,00,-1,02
16708,-0,20,0,29,-10,19,0,00,-0,10,7,00,0,00,0,00,9,97,0,00,-0,87
16724,-0,20,0,39,-10,29,0,00,0,00,-0,00,0,00,0,00,8,47,0,00,-0,74
16740,-0,20,0,39,-10,29,0,00,0,00,-0,00,0,00,0,00,7,20,0,00,-0,63
16756,-0,20,0,39,-10,29,0,00,0,00,-0,00,0,00,0,00,6,12,0,00,-0,53
16772,-0,20,0,39,-10,19,0,00,0,00,-0,00,0,00,0,00,5,20,0,00,-0,45
16788,-0,20,0,29,-10,19,0,00,-0,10,7,00,0,00,0,00,5,47,0,00,-0,38
16804,-0,20,0,29,-9,90,0,00,-0,10,7,00,0,00,0,00,5,70,0,00,-0,33
16820,-0,29,0,49,-9,90,-0,09,0,10,-7,00,0,00,-6,30,3,80,0,00,-1,22
16836,-0,29,0,29,-10,00,-0,09,-0,10,7,00,0,00,-6,30,4,28,0,00,-1,98
16852,0,00,0,29,-10,00,0,20,-0,10,7,00,0,00,14,00,4,69,0,00,0,41
16868,0,00,0,20,-10,49,0,20,-0,19,13,30,0,00,14,00,5,98,0,00,2,45
16884,-0,20,0,20,-10,49,0,00,-0,19,13,30,0,00,0,00,7,08,0,00,2,08
16900,-0,20,0,20,-10,49,0,00,-0,19,13,30,0,00,0,00,8,01,0,00,1,77
16916,-0,20,0,20,-10,49,0,00,-0,19,13,30,0,00,0,00,8,80,0,00,1,51
16932,-0,29,0,29,-10,00,-0,09,-0,10,7,00,0,00,-6,30,8,53,0,00,0,33
16948,-0,29,0,29,-10,00,-0,09,-0,10,7,00,0,00,-6,30,8,30,0,00,-0,66
16980,-0,20,0,29,-10,09,0,00,-0,10,7,00,0,00,0,00,8,11,0,00,-0,56
16996,-0,20,0,39,-10,09,0,00,0,00,-0,00,0,00,0,00,6,89,0,00,-0,48
17012,-0,20,0,39,-10,19,0,00,0,00,-0,00,0,00,0,00,5,86,0,00,-0,41
17028,-0,29,0,29,-10,19,-0,09,-0,10,7,00,0,00,-6,30,6,03,0,00,-1,29
17044,-0,29,0,29,-10,00,-0,09,-0,10,7,00,0,00,-6,30,6,17,0,00,-2,04
17060,-0,20,0,29,-10,00,0,00,-0,10,7,00,0,00,0,00,6,30,0,00,-1,74
17076,-0,20,0,49,-9,70,0,00,0,10,-7,00,0,00,0,00,4,30,0,00,-1,47
17092,-0,29,0,49,-9,70,-0,09,0,10,-7,00,0,00,-6,30,2,61,0,00,-2,20
17108,-0,29,0,49,-9,90,-0,09,0,10,-7,00,0,00,-6,30,1,17,0,00,-2,81
17124,-0,29,0,49,-9,90,-0,09,0,10,-7,00,0,00,-6,30,-0,06,0,00,-3,34
17140,-0,20,0,49,-10,49,0,00,0,10,-7,00,0,00,0,00,-1,10,0,00,-2,84
17156,-0,20,0,49,-10,49,0,00,0,10,-7,00,0,00,0,00,-1,98,0,00,-2,41
17172,-0,20,0,49,-10,49,0,00,0,10,-7,00,0,00,0,00,-2,74,0,00,-2,05
17188,-0,20,0,49,-10,49,0,00,0,10,-7,00,0,00,0,00,-3,38,0,00,-1,74
17204,-0,20,0,49,-10,19,0,00,0,10,-7,00,0,00,0,00,-3,92,0,00,-1,48
17220,-0,20,0,49,-10,00,0,00,0,10,-7,00,0,00,0,00,-4,38,0,00,-1,26
17236,-0,29,0,59,-10,00,-0,09,0,20,-14,00,0,00,-6,30,-5,82,0,00,-2,01
17252,-0,29,0,59,-10,49,-0,09,0,20,-14,00,0,00,-6,30,-7,05,0,00,-2,66
17268,-0,20,0,69,-10,49,0,00,0,30,-21,00,0,00,0,00,-9,14,0,00,-2,26
17284,-0,20,0,69,-10,58,0,00,0,30,-21,00,0,00,0,00,-10,92,0,00,-1,92
17300,-0,20,0,78,-10,58,0,00,0,39,-27,30,0,00,0,00,-13,38,0,00,-1,63
17316,-0,20,0,78,-10,58,0,00,0,39,-27,30,0,00,0,00,-15,47,0,00,-1,39
17332,-0,20,0,78,-10,58,0,00,0,39,-27,30,0,00,0,00,-17,24,0,00,-1,18
17348,-0,20,0,69,-10,09,0,00,0,30,-21,00,0,00,0,00,-17,81,0,00,-1,00
17364,-0,20,0,69,-10,09,0,00,0,30,-21,00,0,00,0,00,-18,28,0,00,-0,85
17396,-0,20,0,69,-10,09,0,00,0,30,-21,00,0,00,0,00,-18,69,0,00,-0,72
17412,-0,20,0,59,-10,39,0,00,0,20,-14,00,0,00,0,00,-17,99,0,00,-0,62
17428,-0,20,0,59,-10,39,0,00,0,20,-14,00,0,00,0,00,-17,39,0,00,-0,52
17444,-0,20,0,69,-10,09,0,00,0,30,-21,00,0,00,0,00,-17,93,0,00,-0,44
17460,-0,20,0,69,-9,90,0,00,0,30,-21,00,0,00,0,00,-18,39,0,00,-0,38
17476,-0,20,0,69,-9,90,0,00,0,30,-21,00,0,00,0,00,-18,78,0,00,-0,32
17492,-0,20,0,69,-10,09,0,00,0,30,-21,00,0,00,0,00,-19,12,0,00,-0,27
17508,-0,20,0,69,-10,09,0,00,0,30,-21,00,0,00,0,00,-19,40,0,00,-0,23
17524,-0,20,0,69,-10,39,0,00,0,30,-21,00,0,00,0,00,-19,64,0,00,-0,20
17540,-0,20,0,59,-10,39,0,00,0,20,-14,00,0,00,0,00,-18,79,0,00,-0,17
17556,-0,20,0,59,-10,39,0,00,0,20,-14,00,0,00,0,00,-18,07,0,00,-0,14
17572,-0,20,0,59,-10,39,0,00,0,20,-14,00,0,00,0,00,-17,46,0,00,-0,12
17588,-0,20,0,69,-10,09,0,00,0,30,-21,00,0,00,0,00,-17,99,0,00,-0,10
17604,-0,20,0,69,-10,09,0,00,0,30,-21,00,0,00,0,00,-18,44,0,00,-0,09
17620,-0,20,0,69,-10,09,0,00,0,30,-21,00,0,00,0,00,-18,83,0,00,-0,07
17636,-0,20,0,69,-10,09,0,00,0,30,-21,00,0,00,0,00,-19,15,0,00,-0,06
17652,-0,20,0,69,-10,09,0,00,0,30,-21,00,0,00,0,00,-19,43,0,00,-0,05
17668,-0,20,0,69,-10,09,0,00,0,30,-21,00,0,00,0,00,-19,67,0,00,-0,05
17684,-0,20,0,59,-10,39,0,00,0,20,-14,00,0,00,0,00,-18,82,0,00,-0,05
17700,-0,20,0,59,-10,39,0,00,0,20,-14,00,0,00,0,00,-18,09,0,00,-0,05
17716,-0,20,0,59,-10,39,0,00,0,20,-14,00,0,00,0,00,-17,48,0,00,-0,05
17732,-0,20,0,59,-10,39,0,00,0,20,-14,00,0,00,0,00,-16,96,0,00,-0,05
17748,-0,20,0,59,-10,39,0,00,0,20,-14,00,0,00,0,00,-16,51,0,00,-0,05
17764,-0,20,0,59,-10,00,0,00,0,20,-14,00,0,00,0,00,-16,14,0,00,-0,05
17796,-0,20,0,39,-10,09,0,00,0,00,-0,00,0,00,0,00,-13,72,0,00,-0,05
17813,-0,20,0,39,-10,09,0,00,0,00,-0,00,0,00,0,00,-11,66,0,00,-0,05
17830,-0,20,0,29,-10,19,0,00,-0,10,7,00,0,00,0,00,-8,86,0,00,-0,05
17847,-0,20,0,29,-10,19,0,00,-0,10,7,00,0,00,0,00,-6,48,0,00,-0,05
17863,-0,20,0,49,-9,90,0,00,0,10,-7,00,0,00,0,00,-6,56,0,00,-0,05
17880,-0,20,0,49,-10,09,0,00,0,10,-7,00,0,00,0,00,-6,63,0,00,-0,05
17897,-0,20,0,39,-10,09,0,00,0,00,-0,00,0,00,0,00,-5,63,0,00,-0,05
17914,-0,20,0,39,-10,58,0,00,0,00,-0,00,0,00,0,00,-4,79,0,00,-0,05
17930,-0,20,0,59,-10,58,0,00,0,20,-14,00,0,00,0,00,-6,17,0,00,-0,05
17947,-0,20,0,20,-10,29,0,00,-0,19,13,30,0,00,0,00,-3,25,0,00,-0,05
17963,-0,20,0,20,-10,29,0,00,-0,19,13,30,0,00,0,00,-0,77,0,00,-0,05
17980,-0,20,0,29,-9,70,0,00,-0,10,7,00,0,00,0,00,0,40,0,00,-0,05
17997,-0,20,0,29,-9,70,0,00,-0,10,7,00,0,00,0,00,1,39,0,00,-0,05
18014,-0,20,0,20,-9,90,0,00,-0,19,13,30,0,00,0,00,3,18,0,00,-0,05
18030,-0,20,0,20,-9,90,0,00,-0,19,13,30,0,00,0,00,4,69,0,00,-0,05
18047,-0,29,0,29,-10,39,-0,09,-0,10,7,00,0,00,-6,30,5,04,0,00,-0,98
18064,-0,29,0,29,-10,39,-0,09,-0,10,7,00,0,00,-6,30,5,33,0,00,-1,78
18080,-0,20,0,29,-10,39,0,00,-0,10,7,00,0,00,0,00,5,58,0,00,-1,51
18097,-0,20,0,20,-10,29,0,00,-0,19,13,30,0,00,0,00,6,74,0,00,-1,29
18113,-0,20,0,20,-10,29,0,00,-0,19,13,30,0,00,0,00,7,73,0,00,-1,09
18130,-0,20,0,20,-10,09,0,00,-0,19,13,30,0,00,0,00,8,56,0,00,-0,93
18147,-0,20,0,20,-10,09,0,00,-0,19,13,30,0,00,0,00,9,27,0,00,-0,79
18163,-0,20,0,10,-10,19,0,00,-0,29,20,30,0,00,0,00,10,93,0,00,-0,67
18180,-0,20,0,10,-10,19,0,00,-0,29,20,30,0,00,0,00,12,33,0,00,-0,57
18196,-0,20,0,10,-10,19,0,00,-0,29,20,30,0,00,0,00,13,53,0,00,-0,49
18212,-0,20,0,10,-10,39,0,00,-0,29,20,30,0,00,0,00,14,54,0,00,-0,41
18228,-0,20,0,29,-10,39,0,00,-0,10,7,00,0,00,0,00,13,41,0,00,-0,35
18244,-0,20,0,29,-10,00,0,00,-0,10,7,00,0,00,0,00,12,45,0,00,-0,30
18260,-0,20,0,10,-10,00,0,00,-0,29,20,30,0,00,0,00,13,63,0,00,-0,25
18276,-0,20,0,10,-10,00,0,00,-0,29,20,30,0,00,0,00,14,63,0,00,-0,22
18292,-0,29,0,10,-10,00,-0,09,-0,29,20,30,0,00,-6,30,15,48,0,00,-1,13
18308,-0,29,0,10,-10,19,-0,09,-0,29,20,30,0,00,-6,30,16,20,0,00,-1,90
18324,-0,20,0,10,-10,19,0,00,-0,29,20,30,0,00,0,00,16,82,0,00,-1,62
18340,-0,49,0,20,-10,29,-0,29,-0,19,13,30,0,00,-20,30,16,29,0,00,-4,42
18356,-0,49,0,20,-10,29,-0,29,-0,19,13,30,0,00,-20,30,15,84,0,00,-6,80
18372,-0,49,0,20,-9,90,-0,29,-0,19,13,30,0,00,-20,30,15,46,0,00,-8,83
18388,-0,49,0,20,-9,90,-0,29,-0,19,13,30,0,00,-20,30,15,14,0,00,-10,55
18404,-0,59,0,20,-10,09,-0,39,-0,19,13,30,0,00,-27,30,14,86,0,00,-13,06
18420,-0,59,0,20,-10,29,-0,39,-0,19,13,30,0,00,-27,30,14,63,0,00,-15,20
18436,-0,78,0,20,-10,29,-0,58,-0,19,13,30,0,00,-40,60,14,43,0,00,-19,01
18452,-0,78,0,20,-10,19,-0,58,-0,19,13,30,0,00,-40,60,14,26,0,00,-22,25
18468,-1,08,0,10,-10,19,-0,88,-0,29,20,30,0,00,-61,60,15,16,0,00,-28,15
18484,-1,08,0,20,-9,90,-0,88,-0,19,13,30,0,00,-61,60,14,88,0,00,-33,17
18500,-0,88,0,20,-9,90,-0,68,-0,19,13,30,0,00,-47,60,14,65,0,00,-35,33
18516,-0,88,0,20,-9,90,-0,68,-0,19,13,30,0,00,-47,60,14,45,0,00,-37,17
18532,-1,27,0,20,-9,90,-1,07,-0,19,13,30,0,00,-74,90,14,27,0,00,-42,83
18548,-1,27,0,20,-10,09,-1,07,-0,19,13,30,0,00,-74,90,14,13,0,00,-47,64
18564,-1,27,0,20,-10,09,-1,07,-0,19,13,30,0,00,-74,90,14,00,0,00,-51,73
18596,-1,37,0,29,-10,19,-1,17,-0,10,7,00,0,00,-81,90,12,95,0,00,-56,26
18612,-1,37,0,29,-10,19,-1,17,-0,10,7,00,0,00,-81,90,12,06,0,00,-60,10
18628,-1,37,0,29,-10,19,-1,17,-0,10,7,00,0,00,-81,90,11,30,0,00,-63,37
18644,-1,37,0,29,-10,19,-1,17,-0,10,7,00,0,00,-81,90,10,66,0,00,-66,15
18660,-1,37,0,29,-10,19,-1,17,-0,10,7,00,0,00,-81,90,10,11,0,00,-68,51
18676,-1,67,0,10,-10,19,-1,47,-0,29,20,30,0,00,-102,90,11,64,0,00,-73,67
18692,-1,67,0,10,-10,00,-1,47,-0,29,20,30,0,00,-102,90,12,94,0,00,-78,06
18708,-1,67,0,29,-10,00,-1,47,-0,10,7,00,0,00,-102,90,12,05,0,00,-81,78
18724,-1,67,0,29,-10,49,-1,47,-0,10,7,00,0,00,-102,90,11,29,0,00,-84,95
18740,-1,86,0,49,-10,49,-1,66,0,10,-7,00,0,00,-116,20,8,55,0,00,-89,64
18756,-1,86,0,20,-10,09,-1,66,-0,19,13,30,0,00,-116,20,9,26,0,00,-90,00
18772,-1,96,0,20,-10,09,-1,76,-0,19,13,30,0,00,-123,20,9,86,0,00,-90,00
18788,-1,96,0,10,-10,00,-1,76,-0,29,20,30,0,00,-123,20,11,43,0,00,-90,00
18804,-2,16,0,10,-10,00,-1,96,-0,29,20,30,0,00,-137,20,12,76,0,00,-90,00
18820,-2,35,0,00,-9,60,-2,15,-0,39,27,30,0,00,-150,50,14,94,0,00,-90,00
18836,-2,35,0,00,-9,60,-2,15,-0,39,27,30,0,00,-150,50,16,80,0,00,-90,00
18852,-2,35,0,10,-9,41,-2,15,-0,29,20,30,0,00,-150,50,17,32,0,00,-90,00
18868,-2,35,0,10,-9,41,-2,15,-0,29,20,30,0,00,-150,50,17,77,0,00,-90,00
18884,-2,65,0,10,-9,80,-2,45,-0,29,20,30,0,00,-171,50,18,15,0,00,-90,00
18900,-2,65,0,10,-10,00,-2,45,-0,29,20,30,0,00,-171,50,18,47,0,00,-90,00
18916,-2,45,0,10,-10,00,-2,25,-0,29,20,30,0,00,-157,50,18,74,0,00,-90,00
18946,-2,74,0,00,-9,90,-2,54,-0,39,27,30,0,00,-177,80,20,03,0,00,-90,00
18963,-2,74,0,00,-10,00,-2,54,-0,39,27,30,0,00,-177,80,21,12,0,00,-90,00
18980,-2,74,0,10,-10,00,-2,54,-0,29,20,30,0,00,-177,80,21,00,0,00,-90,00
18996,-2,74,0,00,-9,90,-2,54,-0,39,27,30,0,00,-177,80,21,94,0,00,-90,00
19012,-2,94,0,00,-9,90,-2,74,-0,39,27,30,0,00,-191,80,22,75,0,00,-90,00
19028,-2,94,0,00,-9,90,-2,74,-0,39,27,30,0,00,-191,80,23,43,0,00,-90,00
19044,-2,94,0,00,-9,90,-2,74,-0,39,27,30,0,00,-191,80,24,01,0,00,-90,00
19060,-2,94,0,10,-10,00,-2,74,-0,29,20,30,0,00,-191,80,23,45,0,00,-90,00
19076,-2,94,0,10,-10,00,-2,74,-0,29,20,30,0,00,-191,80,22,98,0,00,-90,00
19092,-2,94,0,10,-10,00,-2,74,-0,29,20,30,0,00,-191,80,22,58,0,00,-90,00
19108,-2,94,0,10,-10,00,-2,74,-0,29,20,30,0,00,-191,80,22,24,0,00,-90,00
19124,-2,94,0,00,-9,60,-2,74,-0,39,27,30,0,00,-191,80,23,00,0,00,-90,00
19140,-2,94,0,00,-9,80,-2,74,-0,39,27,30,0,00,-191,80,23,64,0,00,-90,00
19156,-3,04,0,10,-9,80,-2,84,-0,29,20,30,0,00,-198,80,23,14,0,00,-90,00
19172,-3,04,0,10,-9,80,-2,84,-0,29,20,30,0,00,-198,80,22,71,0,00,-90,00
19196,-3,04,0,10,-9,80,-2,84,-0,29,20,30,0,00,-198,80,22,35,0,00,-90,00
19213,-3,04,0,10,-9,80,-2,84,-0,29,20,30,0,00,-198,80,22,04,0,00,-90,00
19229,-3,04,0,10,-9,80,-2,84,-0,29,20,30,0,00,-198,80,21,78,0,00,-90,00
19246,-3,23,0,00,-9,60,-3,03,-0,39,27,30,0,00,-212,10,22,61,0,00,-90,00
19263,-3,23,0,00,-9,80,-3,03,-0,39,27,30,0,00,-212,10,23,31,0,00,-90,00
19279,-3,23,0,10,-9,80,-3,03,-0,29,20,30,0,00,-212,10,22,86,0,00,-90,00
19296,-3,23,0,00,-9,60,-3,03,-0,39,27,30,0,00,-212,10,23,53,0,00,-90,00
19313,-3,04,0,00,-9,60,-2,84,-0,39,27,30,0,00,-198,80,24,09,0,00,-90,00
19329,-3,04,0,00,-9,60,-2,84,-0,39,27,30,0,00,-198,80,24,57,0,00,-90,00
19346,-3,04,0,00,-9,60,-2,84,-0,39,27,30,0,00,-198,80,24,98,0,00,-90,00
19363,-3,04,0,00,-9,60,-2,84,-0,39,27,30,0,00,-198,80,25,33,0,00,-90,00
19379,-3,04,0,00,-9,80,-2,84,-0,39,27,30,0,00,-198,80,25,63,0,00,-90,00
19396,-3,04,0,10,-9,80,-2,84,-0,29,20,30,0,00,-198,80,24,83,0,00,-90,00
19412,-3,04,0,10,-9,90,-2,84,-0,29,20,30,0,00,-198,80,24,15,0,00,-90,00
19428,-3,04,0,00,-9,90,-2,84,-0,39,27,30,0,00,-198,80,24,62,0,00,-90,00
19444,-3,04,0,00,-9,90,-2,84,-0,39,27,30,0,00,-198,80,25,02,0,00,-90,00
19460,-3,04,0,00,-9,90,-2,84,-0,39,27,30,0,00,-198,80,25,36,0,00,-90,00
19476,-3,04,0,10,-9,80,-2,84,-0,29,20,30,0,00,-198,80,24,60,0,00,-90,00
19492,-3,04,0,10,-9,80,-2,84,-0,29,20,30,0,00,-198,80,23,96,0,00,-90,00
19508,-3,04,0,10,-9,80,-2,84,-0,29,20,30,0,00,-198,80,23,41,0,00,-90,00
19524,-3,04,0,10,-9,80,-2,84,-0,29,20,30,0,00,-198,80,22,94,0,00,-90,00
19540,-3,04,0,00,-9,90,-2,84,-0,39,27,30,0,00,-198,80,23,60,0,00,-90,00
19557,-3,04,0,00,-9,90,-2,84,-0,39,27,30,0,00,-198,80,24,15,0,00,-90,00
19580,-3,04,0,00,-9,90,-2,84,-0,39,27,30,0,00,-198,80,24,62,0,00,-90,00
19597,-3,04,-0,10,-10,00,-2,84,-0,49,34,30,0,00,-198,80,26,08,0,00,-90,00
19613,-2,74,-0,10,-10,00,-2,54,-0,49,34,30,0,00,-177,80,27,31,0,00,-90,00
19629,-2,65,0,00,-10,09,-2,45,-0,39,27,30,0,00,-171,50,27,31,0,00,-90,00
19652,-2,65,0,00,-10,09,-2,45,-0,39,27,30,0,00,-171,50,27,31,0,00,-90,00
19668,-2,65,0,00,-10,09,-2,45,-0,39,27,30,0,00,-171,50,27,31,0,00,-90,00
19684,-2,65,0,00,-10,09,-2,45,-0,39,27,30,0,00,-171,50,27,31,0,00,-90,00
19700,-2,45,0,00,-10,09,-2,25,-0,39,27,30,0,00,-157,50,27,31,0,00,-90,00
19716,-2,45,0,10,-10,00,-2,25,-0,29,20,30,0,00,-157,50,26,26,0,00,-90,00
19731,-1,86,0,10,-10,00,-1,66,-0,29,20,30,0,00,-116,20,25,36,0,00,-90,00
19747,-1,86,0,39,-9,80,-1,66,0,00,-0,00,0,00,-116,20,21,56,0,00,-90,00
19763,-1,57,0,39,-9,80,-1,37,0,00,-0,00,0,00,-95,90,18,33,0,00,-90,00
19779,-1,27,0,29,-10,00,-1,07,-0,10,7,00,0,00,-74,90,16,63,0,00,-90,00
19796,-1,27,0,29,-10,00,-1,07,-0,10,7,00,0,00,-74,90,15,18,0,00,-90,00
19812,-1,08,0,10,-10,00,-0,88,-0,29,20,30,0,00,-61,60,15,95,0,00,-90,00
19828,-1,08,0,10,-10,00,-0,88,-0,29,20,30,0,00,-61,60,16,60,0,00,-90,00
19844,-1,08,0,10,-10,19,-0,88,-0,29,20,30,0,00,-61,60,17,16,0,00,-90,00
19860,-1,08,0,10,-10,19,-0,88,-0,29,20,30,0,00,-61,60,17,63,0,00,-90,00
19876,-0,78,0,10,-10,19,-0,58,-0,29,20,30,0,00,-40,60,18,03,0,00,-88,54
19892,-0,78,0,10,-10,19,-0,58,-0,29,20,30,0,00,-40,60,18,37,0,00,-81,35
19908,-0,78,0,10,-10,19,-0,58,-0,29,20,30,0,00,-40,60,18,66,0,00,-75,24
19924,-0,78,0,10,-10,29,-0,58,-0,29,20,30,0,00,-40,60,18,91,0,00,-70,04
19940,-0,88,0,20,-10,29,-0,68,-0,19,13,30,0,00,-47,60,18,06,0,00,-66,68
19956,-0,88,-0,10,-10,00,-0,68,-0,49,34,30,0,00,-47,60,20,50,0,00,-63,81
19972,-0,78,-0,10,-10,00,-0,58,-0,49,34,30,0,00,-40,60,22,57,0,00,-60,33
19988,-0,78,-0,20,-9,80,-0,58,-0,59,41,30,0,00,-40,60,25,38,0,00,-57,37
20004,-0,49,-0,20,-9,80,-0,29,-0,59,41,30,0,00,-20,30,27,77,0,00,-51,81
20020,-0,49,0,00,-10,09,-0,29,-0,39,27,30,0,00,-20,30,27,70,0,00,-47,08
20036,-0,49,0,00,-10,09,-0,29,-0,39,27,30,0,00,-20,30,27,64,0,00,-43,07
20052,-0,49,0,20,-10,09,-0,29,-0,19,13,30,0,00,-20,30,25,49,0,00,-39,65
20068,-0,49,0,20,-10,09,-0,29,-0,19,13,30,0,00,-20,30,23,66,0,00,-36,75
20084,-0,29,0,10,-10,39,-0,09,-0,29,20,30,0,00,-6,30,23,16,0,00,-32,18
20100,-0,29,0,10,-10,49,-0,09,-0,29,20,30,0,00,-6,30,22,73,0,00,-28,30
20116,-0,49,0,00,-10,49,-0,29,-0,39,27,30,0,00,-20,30,23,41,0,00,-27,10
20132,-0,49,0,00,-10,29,-0,29,-0,39,27,30,0,00,-20,30,24,00,0,00,-26,08
20148,-0,29,0,00,-10,29,-0,09,-0,39,27,30,0,00,-6,30,24,49,0,00,-23,11
20164,-0,29,0,00,-10,19,-0,09,-0,39,27,30,0,00,-6,30,24,91,0,00,-20,59
20180,-0,29,-0,10,-10,19,-0,09,-0,49,34,30,0,00,-6,30,26,32,0,00,-18,45
20212,-0,29,0,00,-10,29,-0,09,-0,39,27,30,0,00,-6,30,26,47,0,00,-16,63
20228,-0,29,-0,10,-10,00,-0,09,-0,49,34,30,0,00,-6,30,27,64,0,00,-15,08
20244,-0,29,-0,10,-10,00,-0,09,-0,49,34,30,0,00,-6,30,28,64,0,00,-13,76
20260,-0,20,-0,10,-9,70,0,00,-0,49,34,30,0,00,0,00,29,49,0,00,-11,70
20276,-0,20,-0,10,-9,70,0,00,-0,49,34,30,0,00,0,00,30,21,0,00,-9,94
20292,-0,29,0,00,-10,29,-0,09,-0,39,27,30,0,00,-6,30,29,77,0,00,-9,40
20308,-0,29,0,00,-10,29,-0,09,-0,39,27,30,0,00,-6,30,29,40,0,00,-8,93
20324,-0,29,0,00,-10,29,-0,09,-0,39,27,30,0,00,-6,30,29,09,0,00,-8,54
20340,-0,29,0,00,-10,29,-0,09,-0,39,27,30,0,00,-6,30,28,82,0,00,-8,20
20356,-0,29,0,00,-10,29,-0,09,-0,39,27,30,0,00,-6,30,28,59,0,00,-7,92
20372,-0,29,0,00,-10,19,-0,09,-0,39,27,30,0,00,-6,30,28,40,0,00,-7,67
20388,-0,29,0,10,-10,19,-0,09,-0,29,20,30,0,00,-6,30,27,18,0,00,-7,47
20404,-0,29,0,10,-10,29,-0,09,-0,29,20,30,0,00,-6,30,26,15,0,00,-7,29
20420,-0,29,0,00,-10,29,-0,09,-0,39,27,30,0,00,-6,30,26,32,0,00,-7,14
20436,-0,29,0,00,-10,29,-0,09,-0,39,27,30,0,00,-6,30,26,47,0,00,-7,02
20452,-0,49,0,00,-10,29,-0,29,-0,39,27,30,0,00,-20,30,26,59,0,00,-9,01
20468,-0,49,0,00,-10,29,-0,29,-0,39,27,30,0,00,-20,30,26,70,0,00,-10,70
20496,-0,49,0,00,-10,09,-0,29,-0,39,27,30,0,00,-20,30,26,79,0,00,-12,14
20512,-0,49,0,00,-10,09,-0,29,-0,39,27,30,0,00,-20,30,26,87,0,00,-13,37
20529,-0,49,0,00,-10,09,-0,29,-0,39,27,30,0,00,-20,30,26,93,0,00,-14,41
20546,-0,49,0,00,-10,09,-0,29,-0,39,27,30,0,00,-20,30,26,99,0,00,-15,29
20562,-0,49,0,00,-10,09,-0,29,-0,39,27,30,0,00,-20,30,27,03,0,00,-16,04
20579,-0,49,0,00,-10,09,-0,29,-0,39,27,30,0,00,-20,30,27,07,0,00,-16,68
20596,-0,49,0,00,-10,29,-0,29,-0,39,27,30,0,00,-20,30,27,11,0,00,-17,22
20612,-0,49,0,00,-10,19,-0,29,-0,39,27,30,0,00,-20,30,27,14,0,00,-17,68
20628,-0,49,0,10,-10,19,-0,29,-0,29,20,30,0,00,-20,30,26,11,0,00,-18,08
20646,-0,49,-0,10,-10,19,-0,29,-0,49,34,30,0,00,-20,30,27,34,0,00,-18,41
20662,-0,49,-0,10,-10,19,-0,29,-0,49,34,30,0,00,-20,30,28,38,0,00,-18,69
20679,-0,49,0,00,-10,29,-0,29,-0,39,27,30,0,00,-20,30,28,22,0,00,-18,93
20696,-0,49,0,00,-10,29,-0,29,-0,39,27,30,0,00,-20,30,28,08,0,00,-19,14
20712,-0,29,-0,10,-10,19,-0,09,-0,49,34,30,0,00,-6,30,29,02,0,00,-17,21
20729,-0,29,-0,10,-10,19,-0,09,-0,49,34,30,0,00,-6,30,29,81,0,00,-15,58
20746,-0,29,-0,10,-10,19,-0,09,-0,49,34,30,0,00,-6,30,30,48,0,00,-14,19
20762,-0,29,-0,10,-10,09,-0,09,-0,49,34,30,0,00,-6,30,31,05,0,00,-13,00
20779,-0,29,0,00,-10,09,-0,09,-0,39,27,30,0,00,-6,30,30,49,0,00,-12,00
20796,-0,29,0,10,-10,39,-0,09,-0,29,20,30,0,00,-6,30,28,96,0,00,-11,14
20813,0,00,0,10,-10,39,0,20,-0,29,20,30,0,00,14,00,27,66,0,00,-7,37
20829,0,20,0,20,-10,49,0,40,-0,19,13,30,0,00,28,00,25,51,0,00,-2,07
20846,0,20,0,20,-10,49,0,40,-0,19,13,30,0,00,28,00,23,68,0,00,2,44
20863,0,29,0,10,-10,39,0,49,-0,29,20,30,0,00,34,30,23,17,0,00,7,22
20879,0,29,0,10,-10,39,0,49,-0,29,20,30,0,00,34,30,22,74,0,00,11,28
20896,0,49,0,00,-10,09,0,69,-0,39,27,30,0,00,48,30,23,42,0,00,16,84
20912,0,49,0,00,-10,00,0,69,-0,39,27,30,0,00,48,30,24,01,0,00,21,56
20929,0,78,-0,10,-10,00,0,98,-0,49,34,30,0,00,68,60,25,55,0,00,28,61
20946,0,78,0,00,-9,90,0,98,-0,39,27,30,0,00,68,60,25,81,0,00,34,61
20962,0,78,0,00,-9,90,0,98,-0,39,27,30,0,00,68,60,26,04,0,00,39,71
20979,1,08,-0,10,-10,00,1,28,-0,49,34,30,0,00,89,60,27,28,0,00,47,19
20996,1,08,-0,10,-10,00,1,28,-0,49,34,30,0,00,89,60,28,33,0,00,53,55
21012,1,27,-0,10,-10,00,1,47,-0,49,34,30,0,00,102,90,29,22,0,00,60,96
21028,1,27,-0,10,-10,00,1,47,-0,49,34,30,0,00,102,90,29,99,0,00,67,25
21044,1,57,0,00,-10,09,1,77,-0,39,27,30,0,00,123,90,29,58,0,00,75,75
21060,1,57,0,00,-10,19,1,77,-0,39,27,30,0,00,123,90,29,24,0,00,82,97
21076,1,37,0,10,-10,19,1,57,-0,29,20,30,0,00,109,90,27,90,0,00,87,01
21092,1,37,0,10,-10,19,1,57,-0,29,20,30,0,00,109,90,26,76,0,00,90,00
21108,1,86,0,10,-10,19,2,06,-0,29,20,30,0,00,144,20,25,79,0,00,90,00
21124,1,86,0,10,-10,19,2,06,-0,29,20,30,0,00,144,20,24,97,0,00,90,00
21140,1,96,0,29,-10,19,2,16,-0,10,7,00,0,00,151,20,22,27,0,00,90,00
21156,1,96,0,29,-10,19,2,16,-0,10,7,00,0,00,151,20,19,98,0,00,90,00
21172,1,96,0,29,-10,19,2,16,-0,10,7,00,0,00,151,20,18,03,0,00,90,00
21188,1,96,0,20,-10,09,2,16,-0,19,13,30,0,00,151,20,17,32,0,00,90,00
21204,2,35,0,20,-10,09,2,55,-0,19,13,30,0,00,178,50,16,72,0,00,90,00
21220,2,35,0,20,-9,90,2,55,-0,19,13,30,0,00,178,50,16,21,0,00,90,00
21236,2,35,0,20,-9,90,2,55,-0,19,13,30,0,00,178,50,15,77,0,00,90,00
21252,2,65,0,10,-9,80,2,85,-0,29,20,30,0,00,199,50,16,45,0,00,90,00
21268,2,65,0,10,-9,80,2,85,-0,29,20,30,0,00,199,50,17,03,0,00,90,00
21284,2,65,0,10,-9,80,2,85,-0,29,20,30,0,00,199,50,17,52,0,00,90,00
21304,2,65,0,10,-9,70,2,85,-0,29,20,30,0,00,199,50,17,94,0,00,90,00
21339,2,74,0,20,-9,90,2,94,-0,19,13,30,0,00,205,80,17,24,0,00,90,00
21360,2,94,0,20,-9,80,3,14,-0,19,13,30,0,00,219,80,16,65,0,00,90,00
21377,2,94,0,10,-9,80,3,14,-0,29,20,30,0,00,219,80,17,20,0,00,90,00
21396,2,94,0,00,-9,31,3,14,-0,39,27,30,0,00,219,80,18,71,0,00,90,00
21412,3,04,0,00,-9,31,3,24,-0,39,27,30,0,00,226,80,20,00,0,00,90,00
21428,3,04,0,20,-9,90,3,24,-0,19,13,30,0,00,226,80,19,00,0,00,90,00
21444,3,04,0,20,-9,90,3,24,-0,19,13,30,0,00,226,80,18,14,0,00,90,00
21460,3,04,0,20,-9,90,3,24,-0,19,13,30,0,00,226,80,17,42,0,00,90,00
21476,3,04,0,20,-9,90,3,24,-0,19,13,30,0,00,226,80,16,80,0,00,90,00
21492,3,23,0,10,-9,80,3,43,-0,29,20,30,0,00,240,10,17,32,0,00,90,00
21508,3,23,0,10,-9,80,3,43,-0,29,20,30,0,00,240,10,17,77,0,00,90,00
21524,3,23,0,10,-9,80,3,43,-0,29,20,30,0,00,240,10,18,15,0,00,90,00
21540,3,23,0,10,-9,60,3,43,-0,29,20,30,0,00,240,10,18,47,0,00,90,00
21556,3,23,0,00,-9,60,3,43,-0,39,27,30,0,00,240,10,19,80,0,00,90,00
21572,3,23,0,00,-9,51,3,43,-0,39,27,30,0,00,240,10,20,92,0,00,90,00
21588,3,23,0,20,-9,51,3,43,-0,19,13,30,0,00,240,10,19,78,0,00,90,00
21604,3,23,0,20,-9,51,3,43,-0,19,13,30,0,00,240,10,18,81,0,00,90,00
21620,3,23,0,20,-9,51,3,43,-0,19,13,30,0,00,240,10,17,98,0,00,90,00
21636,3,23,0,00,-9,60,3,43,-0,39,27,30,0,00,240,10,19,38,0,00,90,00
21652,3,23,0,00,-9,60,3,43,-0,39,27,30,0,00,240,10,20,57,0,00,90,00
21668,3,23,0,00,-9,60,3,43,-0,39,27,30,0,00,240,10,21,58,0,00,90,00
21684,3,23,0,00,-9,60,3,43,-0,39,27,30,0,00,240,10,22,44,0,00,90,00
21700,3,23,-0,10,-9,70,3,43,-0,49,34,30,0,00,240,10,24,21,0,00,90,00
21716,3,23,-0,10,-9,70,3,43,-0,49,34,30,0,00,240,10,25,73,0,00,90,00
21732,2,94,0,00,-9,90,3,14,-0,39,27,30,0,00,219,80,25,96,0,00,90,00
21748,2,94,0,00,-9,90,3,14,-0,39,27,30,0,00,219,80,26,16,0,00,90,00
21764,2,45,0,20,-9,90,2,65,-0,19,13,30,0,00,185,50,24,23,0,00,90,00
21780,2,45,0,20,-9,80,2,65,-0,19,13,30,0,00,185,50,22,59,0,00,90,00
21812,2,16,0,10,-9,90,2,36,-0,29,20,30,0,00,165,20,22,25,0,00,90,00
21828,1,96,0,00,-9,90,2,16,-0,39,27,30,0,00,151,20,23,01,0,00,90,00
21844,1,96,0,00,-9,60,2,16,-0,39,27,30,0,00,151,20,23,65,0,00,90,00
21860,1,67,-0,20,-9,60,1,87,-0,59,41,30,0,00,130,90,26,30,0,00,90,00
21876,1,67,0,00,-9,60,1,87,-0,39,27,30,0,00,130,90,26,45,0,00,90,00
21893,1,27,0,00,-9,60,1,47,-0,39,27,30,0,00,102,90,26,58,0,00,90,00
21913,1,37,0,10,-9,80,1,57,-0,29,20,30,0,00,109,90,25,64,0,00,90,00
21929,1,37,0,10,-9,80,1,57,-0,29,20,30,0,00,109,90,24,83,0,00,90,00
21946,1,08,0,10,-10,19,1,28,-0,29,20,30,0,00,89,60,24,15,0,00,90,00
21963,1,08,0,10,-10,49,1,28,-0,29,20,30,0,00,89,60,23,58,0,00,90,00
21979,0,88,0,49,-10,49,1,08,0,10,-7,00,0,00,75,60,18,99,0,00,90,00
21996,0,88,0,39,-10,29,1,08,0,00,-0,00,0,00,75,60,16,14,0,00,90,00
22013,0,78,0,39,-10,29,0,98,0,00,-0,00,0,00,68,60,13,72,0,00,90,00
22029,0,78,0,39,-10,29,0,98,0,00,-0,00,0,00,68,60,11,66,0,00,90,00
22046,0,78,0,39,-10,29,0,98,0,00,-0,00,0,00,68,60,9,91,0,00,90,00
22063,0,59,0,69,-9,90,0,79,0,30,-21,00,0,00,55,30,5,28,0,00,90,00
22079,0,59,0,69,-9,90,0,79,0,30,-21,00,0,00,55,30,1,33,0,00,86,58
22096,0,29,0,88,-10,39,0,49,0,49,-34,30,0,00,34,30,-4,01,0,00,78,73
22113,0,29,0,88,-10,58,0,49,0,49,-34,30,0,00,34,30,-8,55,0,00,72,07
22130,0,20,0,59,-10,58,0,40,0,20,-14,00,0,00,28,00,-9,37,0,00,65,46
22146,0,20,0,59,-10,39,0,40,0,20,-14,00,0,00,28,00,-10,07,0,00,59,84
22163,-0,20,0,59,-10,39,0,00,0,20,-14,00,0,00,0,00,-10,66,0,00,50,86
22180,-0,20,0,39,-10,09,0,00,0,00,-0,00,0,00,0,00,-9,06,0,00,43,23
22196,-0,20,0,39,-10,09,0,00,0,00,-0,00,0,00,0,00,-7,70,0,00,36,75
22212,-0,29,0,59,-10,00,-0,09,0,20,-14,00,0,00,-6,30,-8,64,0,00,30,29
22228,-0,29,0,59,-10,00,-0,09,0,20,-14,00,0,00,-6,30,-9,45,0,00,24,80
22244,-0,29,0,69,-9,90,-0,09,0,30,-21,00,0,00,-6,30,-11,18,0,00,20,14
22260,-0,29,0,69,-10,29,-0,09,0,30,-21,00,0,00,-6,30,-12,65,0,00,16,17
22276,-0,29,0,78,-10,29,-0,09,0,39,-27,30,0,00,-6,30,-14,85,0,00,12,80
22292,-0,29,0,78,-10,29,-0,09,0,39,-27,30,0,00,-6,30,-16,72,0,00,9,94
22308,-0,49,0,78,-10,29,-0,29,0,39,-27,30,0,00,-20,30,-18,30,0,00,5,40
22324,-0,49,0,78,-10,49,-0,29,0,39,-27,30,0,00,-20,30,-19,65,0,00,1,55
22340,-0,29,0,98,-10,49,-0,09,0,59,-41,30,0,00,-6,30,-22,90,0,00,0,37
22356,-0,29,0,88,-10,39,-0,09,0,49,-34,30,0,00,-6,30,-24,61,0,00,-0,63
22372,-0,49,0,88,-10,39,-0,29,0,49,-34,30,0,00,-20,30,-26,06,0,00,-3,58
22388,-0,49,0,78,-10,29,-0,29,0,39,-27,30,0,00,-20,30,-26,25,0,00,-6,09
22404,-0,49,0,78,-10,29,-0,29,0,39,-27,30,0,00,-20,30,-26,41,0,00,-8,22
22420,-0,49,0,78,-10,29,-0,29,0,39,-27,30,0,00,-20,30,-26,54,0,00,-10,03
22436,-0,49,0,78,-10,29,-0,29,0,39,-27,30,0,00,-20,30,-26,65,0,00,-11,57
22452,-0,29,0,78,-10,00,-0,09,0,39,-27,30,0,00,-6,30,-26,75,0,00,-10,78
22468,-0,29,0,78,-10,00,-0,09,0,39,-27,30,0,00,-6,30,-26,83,0,00,-10,11
22484,-0,49,0,78,-10,00,-0,29,0,39,-27,30,0,00,-20,30,-26,90,0,00,-11,64
22500,-0,49,0,78,-10,39,-0,29,0,39,-27,30,0,00,-20,30,-26,96,0,00,-12,94
22516,-0,59,0,88,-10,39,-0,39,0,49,-34,30,0,00,-27,30,-28,06,0,00,-15,09
22532,-0,59,0,88,-10,68,-0,39,0,49,-34,30,0,00,-27,30,-29,00,0,00,-16,92
22548,-0,49,0,69,-10,68,-0,29,0,30,-21,00,0,00,-20,30,-27,80,0,00,-17,43
22564,-0,49,0,69,-10,49,-0,29,0,30,-21,00,0,00,-20,30,-26,78,0,00,-17,86
22580,-0,49,0,69,-10,49,-0,29,0,30,-21,00,0,00,-20,30,-25,91,0,00,-18,23
22612,-0,59,0,49,-10,49,-0,39,0,10,-7,00,0,00,-27,30,-23,08,0,00,-19,59
22628,-0,59,0,59,-10,78,-0,39,0,20,-14,00,0,00,-27,30,-21,71,0,00,-20,74
22644,-0,49,0,59,-10,78,-0,29,0,20,-14,00,0,00,-20,30,-20,56,0,00,-20,68
22660,-0,49,0,69,-11,37,-0,29,0,30,-21,00,0,00,-20,30,-20,62,0,00,-20,62
22676,-0,49,0,69,-11,37,-0,29,0,30,-21,00,0,00,-20,30,-20,68,0,00,-20,57
22692,-0,49,-0,20,-9,60,-0,29,-0,59,41,30,0,00,-20,30,-11,38,0,00,-20,53
22708,-0,49,-0,20,-9,60,-0,29,-0,59,41,30,0,00,-20,30,-3,48,0,00,-20,50
22724,-0,59,-0,78,-9,31,-0,39,-1,17,81,90,0,00,-27,30,9,33,0,00,-21,52
22740,-0,59,-0,78,-10,00,-0,39,-1,17,81,90,0,00,-27,30,20,21,0,00,-22,38
22756,-0,49,-1,08,-10,00,-0,29,-1,47,102,90,0,00,-20,30,32,62,0,00,-22,07
22772,-0,49,-1,08,-10,29,-0,29,-1,47,102,90,0,00,-20,30,43,16,0,00,-21,81
22788,-0,59,-1,27,-10,29,-0,39,-1,66,116,20,0,00,-27,30,54,11,0,00,-22,63
22804,-0,59,-1,27,-10,19,-0,39,-1,66,116,20,0,00,-27,30,63,43,0,00,-23,33
22820,-0,59,-1,08,-10,19,-0,39,-1,47,102,90,0,00,-27,30,69,35,0,00,-23,93
22836,-0,59,-1,27,-10,00,-0,39,-1,66,116,20,0,00,-27,30,76,38,0,00,-24,43
22852,-0,29,-1,27,-10,00,-0,09,-1,66,116,20,0,00,-6,30,82,35,0,00,-21,71
22868,-0,29,-1,76,-10,39,-0,09,-2,15,150,50,0,00,-6,30,90,00,0,00,-19,40
22884,-0,49,-1,76,-10,39,-0,29,-2,15,150,50,0,00,-20,30,90,00,0,00,-19,54
22900,-0,49,-1,76,-10,39,-0,29,-2,15,150,50,0,00,-20,30,90,00,0,00,-19,65
22916,-0,49,-1,76,-10,39,-0,29,-2,15,150,50,0,00,-20,30,90,00,0,00,-19,75
22932,-0,49,-1,67,-10,49,-0,29,-2,06,144,20,0,00,-20,30,90,00,0,00,-19,83
22948,-0,49,-1,67,-10,49,-0,29,-2,06,144,20,0,00,-20,30,90,00,0,00,-19,90
22964,-0,29,-2,06,-10,00,-0,09,-2,45,171,50,0,00,-6,30,90,00,0,00,-17,86
22980,-0,29,-2,06,-10,00,-0,09,-2,45,171,50,0,00,-6,30,90,00,0,00,-16,13
23012,-0,59,-2,55,-9,51,-0,39,-2,94,205,80,0,00,-27,30,90,00,0,00,-17,80
23028,-0,78,-2,94,-9,51,-0,58,-3,33,233,10,0,00,-40,60,90,00,0,00,-21,22
23044,-0,78,-2,94,-9,51,-0,58,-3,33,233,10,0,00,-40,60,90,00,0,00,-24,13
23060,-0,49,-2,94,-9,51,-0,29,-3,33,233,10,0,00,-20,30,90,00,0,00,-23,55
23076,-0,49,-3,14,-9,90,-0,29,-3,53,247,10,0,00,-20,30,90,00,0,00,-23,07
23092,-0,59,-3,14,-9,90,-0,39,-3,53,247,10,0,00,-27,30,90,00,0,00,-23,70
23108,-0,59,-3,43,-10,29,-0,39,-3,82,267,40,0,00,-27,30,90,00,0,00,-24,24
23124,-0,59,-3,43,-10,29,-0,39,-3,82,267,40,0,00,-27,30,90,00,0,00,-24,70
23140,-0,49,-3,72,-9,21,-0,29,-4,11,287,70,0,00,-20,30,90,00,0,00,-24,04
23156,-0,49,-3,72,-9,21,-0,29,-4,11,287,70,0,00,-20,30,90,00,0,00,-23,48
23172,-0,49,-4,21,-8,92,-0,29,-4,60,322,00,0,00,-20,30,90,00,0,00,-23,00
23188,-0,49,-4,21,-8,92,-0,29,-4,60,322,00,0,00,-20,30,90,00,0,00,-22,60
23204,-0,78,-4,51,-7,84,-0,58,-4,90,343,00,0,00,-40,60,90,00,0,00,-25,30
23220,-0,78,-4,51,-7,25,-0,58,-4,90,343,00,0,00,-40,60,90,00,0,00,-27,59
23236,-0,59,-4,61,-7,25,-0,39,-5,00,350,00,0,00,-27,30,90,00,0,00,-27,55
23252,-0,59,-4,61,-7,55,-0,39,-5,00,350,00,0,00,-27,30,90,00,0,00,-27,51
23268,-0,59,-4,41,-7,55,-0,39,-4,80,336,00,0,00,-27,30,90,00,0,00,-27,48
23284,-0,59,-4,41,-7,35,-0,39,-4,80,336,00,0,00,-27,30,90,00,0,00,-27,45
23300,-0,59,-4,12,-7,35,-0,39,-4,51,315,70,0,00,-27,30,90,00,0,00,-27,43
23316,-0,59,-4,12,-7,35,-0,39,-4,51,315,70,0,00,-27,30,90,00,0,00,-27,41
23332,-0,59,-4,12,-7,35,-0,39,-4,51,315,70,0,00,-27,30,90,00,0,00,-27,39
23348,-0,59,-3,14,-7,84,-0,39,-3,53,247,10,0,00,-27,30,90,00,0,00,-27,38
23364,-0,59,-3,14,-7,84,-0,39,-3,53,247,10,0,00,-27,30,90,00,0,00,-27,37
23380,-0,78,-2,45,-8,33,-0,58,-2,84,198,80,0,00,-40,60,90,00,0,00,-29,35
23412,-1,08,-1,27,-10,29,-0,88,-1,66,116,20,0,00,-61,60,90,00,0,00,-34,19
23428,-1,08,-1,27,-10,29,-0,88,-1,66,116,20,0,00,-61,60,90,00,0,00,-38,30
23444,-1,08,-1,27,-10,29,-0,88,-1,66,116,20,0,00,-61,60,90,00,0,00,-41,80
23460,-1,08,-1,27,-11,47,-0,88,-1,66,116,20,0,00,-61,60,90,00,0,00,-44,77
23476,-0,29,0,20,-11,56,-0,09,-0,19,13,30,0,00,-6,30,90,00,0,00,-39,00
23492,-0,29,0,20,-11,56,-0,09,-0,19,13,30,0,00,-6,30,90,00,0,00,-34,09
23508,-0,29,0,20,-11,56,-0,09,-0,19,13,30,0,00,-6,30,90,00,0,00,-29,92
23524,-0,29,0,20,-10,00,-0,09,-0,19,13,30,0,00,-6,30,90,00,0,00,-26,38
23540,-0,78,1,76,-10,00,-0,58,1,37,-95,90,0,00,-40,60,80,60,0,00,-28,51
23556,-0,78,2,25,-10,39,-0,58,1,86,-130,20,0,00,-40,60,48,98,0,00,-30,33
23572,0,00,2,25,-10,39,0,20,1,86,-130,20,0,00,14,00,22,10,0,00,-23,68
23588,0,00,2,65,-10,88,0,20,2,26,-158,20,0,00,14,00,-4,94,0,00,-18,03
23604,-0,20,2,65,-10,88,0,00,2,26,-158,20,0,00,0,00,-27,93,0,00,-15,32
23620,-1,08,2,55,-10,00,-0,88,2,16,-151,20,0,00,-61,60,-46,42,0,00,-22,26
23636,-1,08,2,55,-10,00,-0,88,2,16,-151,20,0,00,-61,60,-62,14,0,00,-28,16
23652,-0,20,3,43,-9,60,0,00,3,04,-212,80,0,00,0,00,-84,74,0,00,-23,94
23668,-0,20,3,43,-9,60,0,00,3,04,-212,80,0,00,0,00,-90,00,0,00,-20,35
23684,0,00,3,53,-10,49,0,20,3,14,-219,80,0,00,14,00,-90,00,0,00,-15,20
23700,0,00,3,53,-10,09,0,20,3,14,-219,80,0,00,14,00,-90,00,0,00,-10,82
23716,0,29,3,63,-10,09,0,49,3,24,-226,80,0,00,34,30,-90,00,0,00,-4,05
23732,0,29,3,63,-10,09,0,49,3,24,-226,80,0,00,34,30,-90,00,0,00,1,70
23748,0,29,3,63,-10,09,0,49,3,24,-226,80,0,00,34,30,-90,00,0,00,6,59
23764,0,29,3,63,-9,80,0,49,3,24,-226,80,0,00,34,30,-90,00,0,00,10,75
23780,0,00,4,41,-9,80,0,20,4,02,-281,40,0,00,14,00,-90,00,0,00,11,24
23812,0,20,3,82,-8,62,0,40,3,43,-240,10,0,00,28,00,-90,00,0,00,13,75
23828,0,20,3,92,-8,23,0,40,3,53,-247,10,0,00,28,00,-90,00,0,00,15,89
23844,0,00,3,92,-8,23,0,20,3,53,-247,10,0,00,14,00,-90,00,0,00,15,61
23860,0,00,4,51,-9,51,0,20,4,12,-288,40,0,00,14,00,-90,00,0,00,15,36
23876,0,00,4,51,-9,51,0,20,4,12,-288,40,0,00,14,00,-90,00,0,00,15,16
23892,0,20,5,39,-10,00,0,40,5,00,-350,00,0,00,28,00,-90,00,0,00,17,09
23908,0,20,5,39,-10,00,0,40,5,00,-350,00,0,00,28,00,-90,00,0,00,18,72
23924,0,29,5,29,-8,92,0,49,4,90,-343,00,0,00,34,30,-90,00,0,00,21,06
23940,0,29,5,29,-8,82,0,49,4,90,-343,00,0,00,34,30,-90,00,0,00,23,05
23956,-0,20,4,61,-8,82,0,00,4,22,-295,40,0,00,0,00,-90,00,0,00,19,59
23972,-0,20,4,61,-10,29,0,00,4,22,-295,40,0,00,0,00,-90,00,0,00,16,65
23988,-0,20,5,19,-10,29,0,00,4,80,-336,00,0,00,0,00,-90,00,0,00,14,15
24004,-0,20,5,19,-9,70,0,00,4,80,-336,00,0,00,0,00,-90,00,0,00,12,03
24020,-0,20,5,49,-9,70,0,00,5,10,-357,00,0,00,0,00,-90,00,0,00,10,23
24036,-0,20,4,80,-9,11,0,00,4,41,-308,70,0,00,0,00,-90,00,0,00,8,69
24052,-0,20,4,80,-9,11,0,00,4,41,-308,70,0,00,0,00,-90,00,0,00,7,39
24068,-0,20,4,41,-9,41,0,00,4,02,-281,40,0,00,0,00,-90,00,0,00,6,28
24084,-0,29,4,41,-9,41,-0,09,4,02,-281,40,0,00,-6,30,-90,00,0,00,4,39
24100,-0,20,4,70,-11,17,0,00,4,31,-301,70,0,00,0,00,-90,00,0,00,3,73
24116,-0,20,4,70,-11,17,0,00,4,31,-301,70,0,00,0,00,-90,00,0,00,3,17
24132,0,00,5,10,-13,03,0,20,4,71,-329,70,0,00,14,00,-90,00,0,00,4,80
24148,0,00,5,10,-13,03,0,20,4,71,-329,70,0,00,14,00,-90,00,0,00,6,18
24164,0,00,5,10,-13,03,0,20,4,71,-329,70,0,00,14,00,-90,00,0,00,7,35
24180,0,00,5,10,-13,03,0,20,4,71,-329,70,0,00,14,00,-90,00,0,00,8,35
24212,-0,20,4,51,-11,37,0,00,4,12,-288,40,0,00,0,00,-90,00,0,00,7,10
24228,-0,20,4,51,-11,37,0,00,4,12,-288,40,0,00,0,00,-90,00,0,00,6,03
24244,-0,20,4,51,-7,94,0,00,4,12,-288,40,0,00,0,00,-90,00,0,00,5,13
24260,0,20,1,57,-7,94,0,40,1,18,-82,60,0,00,28,00,-90,00,0,00,8,56
24276,0,20,1,27,-7,55,0,40,0,88,-61,60,0,00,28,00,-90,00,0,00,11,47
24292,-0,20,1,27,-7,55,0,00,0,88,-61,60,0,00,0,00,-90,00,0,00,9,75
24308,-0,20,0,69,-7,25,0,00,0,30,-21,00,0,00,0,00,-90,00,0,00,8,29
24324,-0,20,0,69,-7,25,0,00,0,30,-21,00,0,00,0,00,-90,00,0,00,7,05
24340,-0,49,0,59,-10,00,-0,29,0,20,-14,00,0,00,-20,30,-90,00,0,00,2,94
24356,-0,49,0,59,-10,00,-0,29,0,20,-14,00,0,00,-20,30,-90,00,0,00,-0,54
24372,-0,59,0,78,-11,47,-0,39,0,39,-27,30,0,00,-27,30,-90,00,0,00,-4,56
24388,-0,59,0,78,-11,47,-0,39,0,39,-27,30,0,00,-27,30,-90,00,0,00,-7,97
24404,-0,49,0,78,-12,05,-0,29,0,39,-27,30,0,00,-20,30,-83,89,0,00,-9,82
24420,-0,49,0,78,-10,68,-0,29,0,39,-27,30,0,00,-20,30,-75,40,0,00,-11,39
24436,-0,29,0,69,-10,68,-0,09,0,30,-21,00,0,00,-6,30,-67,24,0,00,-10,63
24452,-0,29,0,69,-10,09,-0,09,0,30,-21,00,0,00,-6,30,-60,30,0,00,-9,98
24468,-0,29,0,39,-10,09,-0,09,0,00,-0,00,0,00,-6,30,-51,26,0,00,-9,43
24484,-0,29,0,39,-9,80,-0,09,0,00,-0,00,0,00,-6,30,-43,57,0,00,-8,96
24500,-0,49,0,39,-9,80,-0,29,0,00,-0,00,0,00,-20,30,-37,03,0,00,-10,66
24516,-0,49,0,29,-9,21,-0,29,-0,10,7,00,0,00,-20,30,-30,43,0,00,-12,10
24532,-0,49,0,29,-9,21,-0,29,-0,10,7,00,0,00,-20,30,-24,81,0,00,-13,33
24548,-0,49,0,20,-9,11,-0,29,-0,19,13,30,0,00,-20,30,-19,10,0,00,-14,38
24564,-0,49,0,20,-9,11,-0,29,-0,19,13,30,0,00,-20,30,-14,24,0,00,-15,27
24580,-0,49,0,20,-9,11,-0,29,-0,19,13,30,0,00,-20,30,-10,11,0,00,-16,02
24596,-0,49,0,20,-9,11,-0,29,-0,19,13,30,0,00,-20,30,-6,60,0,00,-16,66
24628,-0,29,0,29,-10,68,-0,09,-0,10,7,00,0,00,-6,30,-4,56,0,00,-15,11
24644,-0,29,0,29,-10,68,-0,09,-0,10,7,00,0,00,-6,30,-2,82,0,00,-13,79
24660,-0,29,0,29,-9,80,-0,09,-0,10,7,00,0,00,-6,30,-1,35,0,00,-12,66
24676,-0,29,0,10,-9,80,-0,09,-0,29,20,30,0,00,-6,30,1,90,0,00,-11,71
24692,-0,29,0,10,-10,49,-0,09,-0,29,20,30,0,00,-6,30,4,66,0,00,-10,90
24708,-0,29,0,20,-10,49,-0,09,-0,19,13,30,0,00,-6,30,5,95,0,00,-10,21
24724,-0,29,0,20,-10,88,-0,09,-0,19,13,30,0,00,-6,30,7,06,0,00,-9,62
24740,-0,29,0,29,-10,88,-0,09,-0,10,7,00,0,00,-6,30,7,05,0,00,-9,12
24756,-0,29,0,00,-9,90,-0,09,-0,39,27,30,0,00,-6,30,10,09,0,00,-8,70
24772,-0,29,0,00,-9,90,-0,09,-0,39,27,30,0,00,-6,30,12,67,0,00,-8,34
24788,-0,29,0,10,-9,41,-0,09,-0,29,20,30,0,00,-6,30,13,81,0,00,-8,03
24804,-0,29,0,10,-9,41,-0,09,-0,29,20,30,0,00,-6,30,14,79,0,00,-7,77
24820,-0,20,0,20,-10,09,0,00,-0,19,13,30,0,00,0,00,14,56,0,00,-6,61
24836,-0,20,0,20,-10,09,0,00,-0,19,13,30,0,00,0,00,14,37,0,00,-5,62
24852,-0,20,0,20,-10,09,0,00,-0,19,13,30,0,00,0,00,14,21,0,00,-4,77
24868,-0,20,0,20,-10,09,0,00,-0,19,13,30,0,00,0,00,14,08,0,00,-4,06
24884,-0,49,0,20,-10,09,-0,29,-0,19,13,30,0,00,-20,30,13,96,0,00,-6,49
24900,-0,49,0,20,-9,90,-0,29,-0,19,13,30,0,00,-20,30,13,86,0,00,-8,57
24916,-0,29,0,20,-9,90,-0,09,-0,19,13,30,0,00,-6,30,13,78,0,00,-8,23
24932,-0,29,0,20,-10,09,-0,09,-0,19,13,30,0,00,-6,30,13,70,0,00,-7,94
24948,-0,29,0,20,-10,09,-0,09,-0,19,13,30,0,00,-6,30,13,64,0,00,-7,69
24964,-0,29,0,20,-10,09,-0,09,-0,19,13,30,0,00,-6,30,13,59,0,00,-7,48
24980,-0,29,0,20,-10,09,-0,09,-0,19,13,30,0,00,-6,30,13,55,0,00,-7,31
24996,-0,29,0,20,-10,29,-0,09,-0,19,13,30,0,00,-6,30,13,51,0,00,-7,15
25028,-0,49,0,20,-10,29,-0,29,-0,19,13,30,0,00,-20,30,13,48,0,00,-9,13
25044,-0,49,0,20,-10,29,-0,29,-0,19,13,30,0,00,-20,30,13,45,0,00,-10,80
25060,-0,49,0,20,-10,29,-0,29,-0,19,13,30,0,00,-20,30,13,43,0,00,-12,23
25076,-0,49,0,20,-10,29,-0,29,-0,19,13,30,0,00,-20,30,13,41,0,00,-13,44
25092,-0,29,0,20,-9,90,-0,09,-0,19,13,30,0,00,-6,30,13,39,0,00,-12,37
25108,-0,29,0,20,-9,90,-0,09,-0,19,13,30,0,00,-6,30,13,38,0,00,-11,46
25124,-0,29,0,20,-10,09,-0,09,-0,19,13,30,0,00,-6,30,13,37,0,00,-10,68
25140,-0,29,0,20,-10,09,-0,09,-0,19,13,30,0,00,-6,30,13,36,0,00,-10,03
25156,-0,49,0,20,-10,09,-0,29,-0,19,13,30,0,00,-20,30,13,35,0,00,-11,57
25172,-0,49,0,20,-10,09,-0,29,-0,19,13,30,0,00,-20,30,13,35,0,00,-12,88
25188,-0,49,0,20,-10,09,-0,29,-0,19,13,30,0,00,-20,30,13,35,0,00,-13,99
25204,-0,49,0,20,-10,19,-0,29,-0,19,13,30,0,00,-20,30,13,35,0,00,-14,94
25220,-0,20,0,29,-10,19,0,00,-0,10,7,00,0,00,0,00,12,40,0,00,-12,70
25236,-0,20,0,20,-10,09,0,00,-0,19,13,30,0,00,0,00,12,53,0,00,-10,79
25252,-0,29,0,20,-10,09,-0,09,-0,19,13,30,0,00,-6,30,12,65,0,00,-10,12
25268,-0,29,0,29,-10,00,-0,09,-0,10,7,00,0,00,-6,30,11,80,0,00,-9,55
25284,-0,29,0,29,-10,00,-0,09,-0,10,7,00,0,00,-6,30,11,08,0,00,-9,06
25300,-0,20,0,39,-10,29,0,00,0,00,-0,00,0,00,0,00,9,42,0,00,-7,70
25316,-0,20,0,39,-10,29,0,00,0,00,-0,00,0,00,0,00,8,01,0,00,-6,54
25332,-0,29,0,29,-10,19,-0,09,-0,10,7,00,0,00,-6,30,7,85,0,00,-6,51
25348,-0,29,0,29,-10,19,-0,09,-0,10,7,00,0,00,-6,30,7,73,0,00,-6,48
25364,-0,29,0,29,-10,19,-0,09,-0,10,7,00,0,00,-6,30,7,62,0,00,-6,45
25380,-0,29,0,29,-10,00,-0,09,-0,10,7,00,0,00,-6,30,7,52,0,00,-6,43
25396,-0,20,0,29,-10,19,0,00,-0,10,7,00,0,00,0,00,7,45,0,00,-5,46
25428,-0,29,0,10,-10,19,-0,09,-0,29,20,30,0,00,-6,30,9,37,0,00,-5,59
25444,-0,29,0,10,-10,19,-0,09,-0,29,20,30,0,00,-6,30,11,01,0,00,-5,70
25460,-0,29,0,10,-10,19,-0,09,-0,29,20,30,0,00,-6,30,12,41,0,00,-5,79
25476,-0,29,0,10,-10,19,-0,09,-0,29,20,30,0,00,-6,30,13,59,0,00,-5,86
25492,-0,29,0,10,-10,19,-0,09,-0,29,20,30,0,00,-6,30,14,60,0,00,-5,93
25508,-0,29,-0,10,-10,19,-0,09,-0,49,34,30,0,00,-6,30,17,55,0,00,-5,98
25524,-0,29,-0,10,-10,19,-0,09,-0,49,34,30,0,00,-6,30,20,06,0,00,-6,03
25540,-0,49,-0,39,-10,00,-0,29,-0,78,54,60,0,00,-20,30,25,24,0,00,-8,17
25556,-0,49,-0,39,-10,00,-0,29,-0,78,54,60,0,00,-20,30,29,65,0,00,-9,99
25572,-0,20,-0,39,-9,80,0,00,-0,78,54,60,0,00,0,00,33,39,0,00,-8,49
25588,-0,20,-0,39,-9,80,0,00,-0,78,54,60,0,00,0,00,36,57,0,00,-7,22
25604,0,49,0,49,-10,68,0,69,0,10,-7,00,0,00,48,30,30,04,0,00,1,11
25620,0,49,0,49,-11,27,0,69,0,10,-7,00,0,00,48,30,24,48,0,00,8,19
25636,0,20,0,00,-11,27,0,40,-0,39,27,30,0,00,28,00,24,90,0,00,11,16
25652,0,20,0,00,-11,66,0,40,-0,39,27,30,0,00,28,00,25,26,0,00,13,69
25668,-0,29,-0,49,-11,66,-0,09,-0,88,61,60,0,00,-6,30,30,71,0,00,10,69
25684,-0,29,-0,49,-10,78,-0,09,-0,88,61,60,0,00,-6,30,35,35,0,00,8,14
25700,0,78,0,59,-10,78,0,98,0,20,-14,00,0,00,68,60,27,94,0,00,17,21
25716,0,78,-0,29,-10,19,0,98,-0,68,47,60,0,00,68,60,30,89,0,00,24,92
25732,0,00,-0,29,-10,19,0,20,-0,68,47,60,0,00,14,00,33,40,0,00,23,28
25748,0,00,0,00,-9,90,0,20,-0,39,27,30,0,00,14,00,32,48,0,00,21,89
25764,0,49,0,00,-9,90,0,69,-0,39,27,30,0,00,48,30,31,71,0,00,25,85
25780,-0,49,-1,27,-9,11,-0,29,-1,66,116,20,0,00,-20,30,44,38,0,00,18,93
25796,-0,49,-1,27,-9,11,-0,29,-1,66,116,20,0,00,-20,30,55,15,0,00,13,04
25828,-0,29,-1,96,-9,11,-0,09,-2,35,164,50,0,00,-6,30,71,56,0,00,10,14
25844,0,29,-0,29,-9,70,0,49,-0,68,47,60,0,00,34,30,67,96,0,00,13,77
25860,0,29,-0,29,-9,70,0,49,-0,68,47,60,0,00,34,30,64,91,0,00,16,85
25876,0,29,-0,29,-9,70,0,49,-0,68,47,60,0,00,34,30,62,31,0,00,19,46
25892,0,29,-0,29,-10,29,0,49,-0,68,47,60,0,00,34,30,60,10,0,00,21,69
25908,-0,59,-1,27,-10,29,-0,39,-1,66,116,20,0,00,-27,30,68,52,0,00,14,34
25924,-0,59,-1,27,-10,78,-0,39,-1,66,116,20,0,00,-27,30,75,67,0,00,8,09
25940,-0,20,-1,08,-10,78,0,00,-1,47,102,90,0,00,0,00,79,76,0,00,6,88
25956,-0,20,-0,49,-9,70,0,00,-0,88,61,60,0,00,0,00,77,03,0,00,5,85
25972,0,20,-0,49,-9,70,0,40,-0,88,61,60,0,00,28,00,74,72,0,00,9,17
25988,0,20,-2,65,-10,68,0,40,-3,04,212,80,0,00,28,00,90,00,0,00,12,00
26004,-3,82,-2,65,-10,68,-3,62,-3,04,212,80,0,00,-253,40,90,00,0,00,-27,81
26020,-4,21,-5,49,-13,43,-4,01,-5,88,411,60,0,00,-280,70,90,00,0,00,-65,75
26036,-4,21,-5,49,-13,43,-4,01,-5,88,411,60,0,00,-280,70,90,00,0,00,-90,00
26052,-0,20,0,88,-10,88,0,00,0,49,-34,30,0,00,0,00,90,00,0,00,-83,29
26068,-0,20,0,88,-10,88,0,00,0,49,-34,30,0,00,0,00,90,00,0,00,-70,80
26084,0,20,-1,18,-8,23,0,40,-1,57,109,90,0,00,28,00,90,00,0,00,-55,98
26100,0,20,-1,18,-9,70,0,40,-1,57,109,90,0,00,28,00,90,00,0,00,-43,38
26116,-1,08,-1,76,-9,70,-0,88,-2,15,150,50,0,00,-61,60,90,00,0,00,-46,11
26132,-1,08,-1,76,-12,64,-0,88,-2,15,150,50,0,00,-61,60,90,00,0,00,-48,44
26148,-0,49,-1,47,-12,64,-0,29,-1,86,130,20,0,00,-20,30,90,00,0,00,-44,22
26164,-0,49,-1,47,-11,47,-0,29,-1,86,130,20,0,00,-20,30,90,00,0,00,-40,63
26180,-0,29,-1,47,-11,47,-0,09,-1,86,130,20,0,00,-6,30,90,00,0,00,-35,48
26196,-0,29,-1,47,-11,47,-0,09,-1,86,130,20,0,00,-6,30,90,00,0,00,-31,10
26228,-0,29,-2,16,-9,90,-0,09,-2,55,178,50,0,00,-6,30,90,00,0,00,-27,38
26244,0,00,-2,16,-9,90,0,20,-2,55,178,50,0,00,14,00,90,00,0,00,-21,17
26260,0,88,-0,69,-12,64,1,08,-1,08,75,60,0,00,75,60,90,00,0,00,-6,66
26276,0,88,-0,69,-12,64,1,08,-1,08,75,60,0,00,75,60,90,00,0,00,5,68
26292,0,88,-0,69,-12,64,1,08,-1,08,75,60,0,00,75,60,90,00,0,00,16,17
26308,0,88,-0,69,-12,64,1,08,-1,08,75,60,0,00,75,60,90,00,0,00,25,08
26324,0,88,-1,86,-9,21,1,08,-2,25,157,50,0,00,75,60,90,00,0,00,32,66
26340,0,88,-1,86,-11,86,1,08,-2,25,157,50,0,00,75,60,90,00,0,00,39,10
26356,1,08,-1,67,-11,86,1,28,-2,06,144,20,0,00,89,60,90,00,0,00,46,68
26372,1,08,-1,67,-9,90,1,28,-2,06,144,20,0,00,89,60,90,00,0,00,53,11
26388,3,72,-1,76,-9,90,3,92,-2,15,150,50,0,00,274,40,90,00,0,00,86,31
26404,3,72,-1,76,-9,31,3,92,-2,15,150,50,0,00,274,40,90,00,0,00,90,00
26420,1,57,-3,63,-9,31,1,77,-4,02,281,40,0,00,123,90,90,00,0,00,90,00
26436,1,57,-3,63,-9,31,1,77,-4,02,281,40,0,00,123,90,90,00,0,00,90,00
26467,1,57,-1,47,-9,70,1,77,-1,86,130,20,0,00,123,90,90,00,0,00,90,00
26483,1,96,-1,47,-9,70,2,16,-1,86,130,20,0,00,151,20,90,00,0,00,90,00
26499,1,67,-1,96,-9,90,1,87,-2,35,164,50,0,00,130,90,90,00,0,00,90,00
26515,1,67,-1,96,-9,90,1,87,-2,35,164,50,0,00,130,90,90,00,0,00,90,00
26531,1,57,-2,55,-9,60,1,77,-2,94,205,80,0,00,123,90,90,00,0,00,90,00
26547,1,57,-2,55,-9,60,1,77,-2,94,205,80,0,00,123,90,90,00,0,00,90,00
26563,2,74,-2,94,-8,04,2,94,-3,33,233,10,0,00,205,80,90,00,0,00,90,00
26579,2,74,-2,94,-8,04,2,94,-3,33,233,10,0,00,205,80,90,00,0,00,90,00
26595,1,96,-2,16,-8,72,2,16,-2,55,178,50,0,00,151,20,90,00,0,00,90,00
26612,1,96,-2,16,-7,15,2,16,-2,55,178,50,0,00,151,20,90,00,0,00,90,00
26628,1,08,-2,45,-7,15,1,28,-2,84,198,80,0,00,89,60,90,00,0,00,90,00
26644,1,08,-2,45,-8,33,1,28,-2,84,198,80,0,00,89,60,90,00,0,00,90,00
26660,-0,49,-2,25,-8,33,-0,29,-2,64,184,80,0,00,-20,30,90,00,0,00,90,00
26676,-0,49,-1,76,-11,37,-0,29,-2,15,150,50,0,00,-20,30,90,00,0,00,89,80
26691,1,57,-1,76,-11,37,1,77,-2,15,150,50,0,00,123,90,90,00,0,00,90,00
26708,1,57,-1,76,-11,37,1,77,-2,15,150,50,0,00,123,90,90,00,0,00,90,00
26724,1,57,-1,76,-11,37,1,77,-2,15,150,50,0,00,123,90,90,00,0,00,90,00
26740,-0,20,-1,47,-9,11,0,00,-1,86,130,20,0,00,0,00,90,00,0,00,87,52
26756,-0,20,-1,47,-9,11,0,00,-1,86,130,20,0,00,0,00,90,00,0,00,74,39
26772,-1,37,-1,76,-6,08,-1,17,-2,15,150,50,0,00,-81,90,90,00,0,00,50,95
26788,-1,37,-1,76,-6,08,-1,17,-2,15,150,50,0,00,-81,90,90,00,0,00,31,02
26803,-2,35,-1,37,-8,43,-2,15,-1,76,123,20,0,00,-150,50,90,00,0,00,3,79
26818,-2,35,-1,37,-8,43,-2,15,-1,76,123,20,0,00,-150,50,90,00,0,00,-19,35
26833,-0,88,-0,69,-10,68,-0,68,-1,08,75,60,0,00,-47,60,90,00,0,00,-23,59
26848,-0,88,-0,69,-10,68,-0,68,-1,08,75,60,0,00,-47,60,90,00,0,00,-27,19
26863,-1,67,-0,20,-8,43,-1,47,-0,59,41,30,0,00,-102,90,90,00,0,00,-38,55
26878,-1,67,-0,20,-8,43,-1,47,-0,59,41,30,0,00,-102,90,90,00,0,00,-48,20
26895,-1,96,-0,20,-8,82,-1,76,-0,59,41,30,0,00,-123,20,90,00,0,00,-59,45
26912,-1,96,-0,20,-11,76,-1,76,-0,59,41,30,0,00,-123,20,86,42,0,00,-69,01
26928,-2,94,-0,78,-11,76,-2,74,-1,17,81,90,0,00,-191,80,85,74,0,00,-87,43
26945,-2,94,1,18,-12,94,-2,74,0,79,-55,30,0,00,-191,80,64,58,0,00,-90,00
26962,-0,88,1,18,-12,94,-0,68,0,79,-55,30,0,00,-47,60,46,60,0,00,-90,00
26979,-2,45,0,69,-10,49,-2,25,0,30,-21,00,0,00,-157,50,36,46,0,00,-90,00
26995,-2,45,0,69,-10,49,-2,25,0,30,-21,00,0,00,-157,50,27,84,0,00,-90,00
27012,-3,04,-0,29,-11,37,-2,84,-0,68,47,60,0,00,-198,80,30,81,0,00,-90,00
27028,-3,04,-0,29,-11,37,-2,84,-0,68,47,60,0,00,-198,80,33,32,0,00,-90,00
27044,-0,78,0,78,-13,92,-0,58,0,39,-27,30,0,00,-40,60,24,23,0,00,-90,00
27060,-0,78,0,78,-12,84,-0,58,0,39,-27,30,0,00,-40,60,16,50,0,00,-90,00
27076,-1,37,0,49,-12,84,-1,17,0,10,-7,00,0,00,-81,90,12,98,0,00,-90,00
27092,-1,37,0,49,-8,53,-1,17,0,10,-7,00,0,00,-81,90,9,98,0,00,-90,00
27108,-1,08,0,10,-8,53,-0,88,-0,29,20,30,0,00,-61,60,11,53,0,00,-90,00
27124,-1,08,0,10,-8,53,-0,88,-0,29,20,30,0,00,-61,60,12,84,0,00,-90,00
27140,-1,08,0,10,-8,53,-0,88,-0,29,20,30,0,00,-61,60,13,96,0,00,-86,39
27156,-1,08,-0,49,-7,25,-0,88,-0,88,61,60,0,00,-61,60,21,11,0,00,-82,67
27172,-1,37,-0,49,-7,25,-1,17,-0,88,61,60,0,00,-81,90,27,18,0,00,-82,56
27188,-1,37,-0,49,-8,82,-1,17,-0,88,61,60,0,00,-81,90,32,34,0,00,-82,46
27204,-1,27,-0,49,-8,82,-1,07,-0,88,61,60,0,00,-74,90,36,73,0,00,-81,33
27220,-1,86,0,88,-11,96,-1,66,0,49,-34,30,0,00,-116,20,26,08,0,00,-86,56
27236,-1,86,0,88,-11,96,-1,66,0,49,-34,30,0,00,-116,20,17,02,0,00,-90,00
27252,-0,59,1,08,-10,58,-0,39,0,69,-48,30,0,00,-27,30,7,22,0,00,-81,45
27268,-0,59,1,08,-10,58,-0,39,0,69,-48,30,0,00,-27,30,-1,11,0,00,-73,33
27284,-0,49,1,08,-10,19,-0,29,0,69,-48,30,0,00,-20,30,-8,18,0,00,-65,37
27300,-0,49,1,08,-9,31,-0,29,0,69,-48,30,0,00,-20,30,-14,20,0,00,-58,61
27316,-0,20,0,98,-9,31,0,00,0,59,-41,30,0,00,0,00,-18,27,0,00,-49,82
27332,-0,20,0,98,-11,27,0,00,0,59,-41,30,0,00,0,00,-21,72,0,00,-42,35
27348,2,35,2,16,-11,27,2,55,1,77,-123,90,0,00,178,50,-37,05,0,00,-9,22
27364,2,35,2,16,-6,96,2,55,1,77,-123,90,0,00,178,50,-50,08,0,00,18,94
27380,0,00,1,76,-6,96,0,20,1,37,-95,90,0,00,14,00,-56,95,0,00,18,20
27396,0,00,-0,10,-8,33,0,20,-0,49,34,30,0,00,14,00,-43,26,0,00,17,57
27428,1,57,-2,16,-5,88,1,77,-2,55,178,50,0,00,123,90,-10,00,0,00,33,52
27444,-0,88,-2,16,-5,88,-0,68,-2,55,178,50,0,00,-47,60,18,28,0,00,21,35
27460,0,00,1,37,-9,80,0,20,0,98,-68,60,0,00,14,00,5,25,0,00,20,25
27476,0,00,1,37,-9,80,0,20,0,98,-68,60,0,00,14,00,-5,83,0,00,19,31
27492,-2,65,-1,57,-10,39,-2,45,-1,96,137,20,0,00,-171,50,15,62,0,00,-9,31
27508,-2,65,-1,57,-10,39,-2,45,-1,96,137,20,0,00,-171,50,33,86,0,00,-33,64
27524,0,29,0,29,-10,39,0,49,-0,10,7,00,0,00,34,30,29,83,0,00,-23,45
27540,0,29,0,29,-10,49,0,49,-0,10,7,00,0,00,34,30,26,41,0,00,-14,79
27556,-0,20,0,49,-10,49,0,00,0,10,-7,00,0,00,0,00,21,40,0,00,-12,57
27572,-0,20,0,49,-10,49,0,00,0,10,-7,00,0,00,0,00,17,14,0,00,-10,68
27588,-0,20,0,49,-10,49,0,00,0,10,-7,00,0,00,0,00,13,52,0,00,-9,08
27604,-0,20,0,69,-9,70,0,00,0,30,-21,00,0,00,0,00,8,34,0,00,-7,72
27620,-0,49,0,69,-9,70,-0,29,0,30,-21,00,0,00,-20,30,3,94,0,00,-9,61
27636,-0,49,0,29,-10,19,-0,29,-0,10,7,00,0,00,-20,30,4,40,0,00,-11,21
27652,-0,20,0,29,-10,19,0,00,-0,10,7,00,0,00,0,00,4,79,0,00,-9,53
27668,-0,20,0,29,-10,00,0,00,-0,10,7,00,0,00,0,00,5,12,0,00,-8,10
27684,-0,20,0,29,-10,00,0,00,-0,10,7,00,0,00,0,00,5,40,0,00,-6,88
27700,0,00,0,29,-10,19,0,20,-0,10,7,00,0,00,14,00,5,64,0,00,-3,75
27716,0,00,0,29,-10,19,0,20,-0,10,7,00,0,00,14,00,5,84,0,00,-1,09
27732,-0,20,0,29,-10,19,0,00,-0,10,7,00,0,00,0,00,6,02,0,00,-0,93
27748,-0,20,0,29,-10,19,0,00,-0,10,7,00,0,00,0,00,6,17,0,00,-0,79
27764,0,20,0,39,-10,09,0,40,0,00,-0,00,0,00,28,00,5,24,0,00,3,53
27780,0,20,0,39,-10,19,0,40,0,00,-0,00,0,00,28,00,4,45,0,00,7,20
27796,0,00,0,49,-10,19,0,20,0,10,-7,00,0,00,14,00,2,74,0,00,8,22
27828,0,00,0,29,-10,19,0,20,-0,10,7,00,0,00,14,00,3,38,0,00,9,09
27844,0,00,0,29,-10,09,0,20,-0,10,7,00,0,00,14,00,3,92,0,00,9,82
27860,-0,20,0,39,-10,09,0,00,0,00,-0,00,0,00,0,00,3,33,0,00,8,35
27876,-0,20,0,39,-10,09,0,00,0,00,-0,00,0,00,0,00,2,83,0,00,7,10
27892,-0,20,0,39,-10,09,0,00,0,00,-0,00,0,00,0,00,2,41,0,00,6,03
27908,-0,20,0,39,-10,09,0,00,0,00,-0,00,0,00,0,00,2,05,0,00,5,13
27924,-0,20,0,39,-10,09,0,00,0,00,-0,00,0,00,0,00,1,74,0,00,4,36
27940,-0,20,0,29,-10,19,0,00,-0,10,7,00,0,00,0,00,2,53,0,00,3,71
27956,-0,20,0,29,-10,19,0,00,-0,10,7,00,0,00,0,00,3,20,0,00,3,15
27972,0,00,0,29,-10,19,0,20,-0,10,7,00,0,00,14,00,3,77,0,00,4,78
27988,0,00,0,29,-10,19,0,20,-0,10,7,00,0,00,14,00,4,25,0,00,6,16
28004,0,00,0,29,-10,19,0,20,-0,10,7,00,0,00,14,00,4,67,0,00,7,34
28020,0,00,0,29,-10,09,0,20,-0,10,7,00,0,00,14,00,5,02,0,00,8,34
28036,-0,20,0,39,-10,09,0,00,0,00,-0,00,0,00,0,00,4,26,0,00,7,09
28052,-0,20,0,39,-10,09,0,00,0,00,-0,00,0,00,0,00,3,62,0,00,6,02
28068,-0,20,0,39,-10,09,0,00,0,00,-0,00,0,00,0,00,3,08,0,00,5,12
28084,-0,20,0,39,-10,19,0,00,0,00,-0,00,0,00,0,00,2,62,0,00,4,35
28100,-0,20,0,29,-10,19,0,00,-0,10,7,00,0,00,0,00,3,28,0,00,3,70
28116,-0,20,0,49,-10,19,0,00,0,10,-7,00,0,00,0,00,1,73,0,00,3,14
28132,0,00,0,49,-10,19,0,20,0,10,-7,00,0,00,14,00,0,42,0,00,4,77
28148,0,00,0,39,-10,09,0,20,0,00,-0,00,0,00,14,00,0,36,0,00,6,16
28164,-0,20,0,39,-10,09,0,00,0,00,-0,00,0,00,0,00,0,31,0,00,5,23
28180,-0,20,0,39,-10,09,0,00,0,00,-0,00,0,00,0,00,0,26,0,00,4,45
28196,-0,20,0,39,-10,09,0,00,0,00,-0,00,0,00,0,00,0,22,0,00,3,78
28212,-0,20,0,39,-10,09,0,00,0,00,-0,00,0,00,0,00,0,19,0,00,3,21
28243,0,00,0,49,-10,49,0,20,0,10,-7,00,0,00,14,00,-0,89,0,00,4,83
28259,0,00,0,49,-10,49,0,20,0,10,-7,00,0,00,14,00,-1,81,0,00,6,21
28275,0,20,0,39,-10,09,0,40,0,00,-0,00,0,00,28,00,-1,54,0,00,9,48
28291,0,20,0,39,-10,09,0,40,0,00,-0,00,0,00,28,00,-1,31,0,00,12,25
28310,-0,20,0,39,-10,09,0,00,0,00,-0,00,0,00,0,00,-1,11,0,00,10,42
28335,0,00,0,39,-10,09,0,20,0,00,-0,00,0,00,14,00,-0,94,0,00,10,95
28357,0,00,0,39,-10,09,0,20,0,00,-0,00,0,00,14,00,-0,80,0,00,11,41
28374,0,00,0,39,-10,09,0,20,0,00,-0,00,0,00,14,00,-0,68,0,00,11,80
28389,-0,20,0,29,-10,19,0,00,-0,10,7,00,0,00,0,00,0,47,0,00,10,03
28411,-0,20,0,29,-10,19,0,00,-0,10,7,00,0,00,0,00,1,45,0,00,8,52
28428,-0,20,0,29,-10,19,0,00,-0,10,7,00,0,00,0,00,2,28,0,00,7,25
28445,-0,20,0,29,-10,19,0,00,-0,10,7,00,0,00,0,00,2,99,0,00,6,16
28461,0,00,0,29,-10,19,0,20,-0,10,7,00,0,00,14,00,3,59,0,00,7,34
28479,0,00,0,39,-10,09,0,20,0,00,-0,00,0,00,14,00,3,05,0,00,8,34
28495,0,00,0,39,-10,09,0,20,0,00,-0,00,0,00,14,00,2,60,0,00,9,18
28512,-0,20,0,39,-10,09,0,00,0,00,-0,00,0,00,0,00,2,21,0,00,7,81
28529,-0,20,0,39,-10,09,0,00,0,00,-0,00,0,00,0,00,1,87,0,00,6,64
28545,-0,20,0,39,-10,09,0,00,0,00,-0,00,0,00,0,00,1,59,0,00,5,64
28562,-0,20,0,39,-10,09,0,00,0,00,-0,00,0,00,0,00,1,35,0,00,4,79
28578,-0,20,0,39,-10,09,0,00,0,00,-0,00,0,00,0,00,1,15,0,00,4,08
28595,-0,20,0,39,-10,09,0,00,0,00,-0,00,0,00,0,00,0,98,0,00,3,46
28612,-0,20,0,39,-10,09,0,00,0,00,-0,00,0,00,0,00,0,83,0,00,2,94
28628,-0,20,0,29,-10,19,0,00,-0,10,7,00,0,00,0,00,1,76,0,00,2,50
28644,-0,20,0,29,-10,19,0,00,-0,10,7,00,0,00,0,00,2,54,0,00,2,13
28660,-0,20,0,39,-10,09,0,00,0,00,-0,00,0,00,0,00,2,16,0,00,1,81
28676,-0,20,0,39,-10,09,0,00,0,00,-0,00,0,00,0,00,1,84,0,00,1,54
28692,-0,20,0,39,-10,09,0,00,0,00,-0,00,0,00,0,00,1,56,0,00,1,31
28708,-0,20,0,39,-10,09,0,00,0,00,-0,00,0,00,0,00,1,33,0,00,1,11
28724,-0,20,0,39,-10,09,0,00,0,00,-0,00,0,00,0,00,1,13,0,00,0,94
28740,-0,20,0,39,-10,19,0,00,0,00,-0,00,0,00,0,00,0,96,0,00,0,80
28756,-0,20,0,29,-10,19,0,00,-0,10,7,00,0,00,0,00,1,87,0,00,0,68
28772,-0,20,0,29,-10,09,0,00,-0,10,7,00,0,00,0,00,2,64,0,00,0,58
28788,-0,20,0,39,-10,09,0,00,0,00,-0,00,0,00,0,00,2,24,0,00,0,49
28804,-0,20,0,39,-10,29,0,00,0,00,-0,00,0,00,0,00,1,90,0,00,0,42
28820,-0,20,0,39,-10,29,0,00,0,00,-0,00,0,00,0,00,1,62,0,00,0,36
28836,-0,20,0,39,-10,29,0,00,0,00,-0,00,0,00,0,00,1,38,0,00,0,30
28852,-0,20,0,39,-10,29,0,00,0,00,-0,00,0,00,0,00,1,17,0,00,0,26
28868,-0,20,0,39,-10,09,0,00,0,00,-0,00,0,00,0,00,0,99,0,00,0,22
28895,-0,20,0,39,-10,09,0,00,0,00,-0,00,0,00,0,00,0,84,0,00,0,19
28912,-0,20,0,39,-10,09,0,00,0,00,-0,00,0,00,0,00,0,72,0,00,0,16
28929,-0,20,0,39,-10,09,0,00,0,00,-0,00,0,00,0,00,0,61,0,00,0,13
28945,-0,20,0,39,-10,09,0,00,0,00,-0,00,0,00,0,00,0,52,0,00,0,11
28962,-0,20,0,39,-10,09,0,00,0,00,-0,00,0,00,0,00,0,44,0,00,0,10
28978,-0,20,0,39,-10,09,0,00,0,00,-0,00,0,00,0,00,0,37,0,00,0,08
28995,-0,20,0,39,-10,09,0,00,0,00,-0,00,0,00,0,00,0,32,0,00,0,07
29012,-0,20,0,39,-10,09,0,00,0,00,-0,00,0,00,0,00,0,27,0,00,0,06
29028,-0,20,0,39,-10,09,0,00,0,00,-0,00,0,00,0,00,0,23,0,00,0,05
29044,-0,20,0,39,-10,09,0,00,0,00,-0,00,0,00,0,00,0,20,0,00,0,04
29060,-0,20,0,39,-10,09,0,00,0,00,-0,00,0,00,0,00,0,17,0,00,0,04
29076,-0,20,0,39,-10,09,0,00,0,00,-0,00,0,00,0,00,0,14,0,00,0,04
29092,-0,20,0,39,-10,09,0,00,0,00,-0,00,0,00,0,00,0,12,0,00,0,04
29109,-0,20,0,39,-10,09,0,00,0,00,-0,00,0,00,0,00,0,10,0,00,0,04
29129,-0,20,0,39,-10,19,0,00,0,00,-0,00,0,00,0,00,0,09,0,00,0,04
29145,-0,20,0,29,-10,19,0,00,-0,10,7,00,0,00,0,00,1,12,0,00,0,04
29162,-0,20,0,29,-10,09,0,00,-0,10,7,00,0,00,0,00,2,01,0,00,0,04
29179,-0,20,0,39,-10,09,0,00,0,00,-0,00,0,00,0,00,1,70,0,00,0,04
29195,-0,20,0,39,-10,29,0,00,0,00,-0,00,0,00,0,00,1,45,0,00,0,04
29212,-0,20,0,39,-10,29,0,00,0,00,-0,00,0,00,0,00,1,23,0,00,0,04
29228,-0,20,0,29,-10,19,0,00,-0,10,7,00,0,00,0,00,2,10,0,00,0,04
29245,-0,20,0,29,-10,19,0,00,-0,10,7,00,0,00,0,00,2,83,0,00,0,04
29262,-0,20,0,29,-10,19,0,00,-0,10,7,00,0,00,0,00,3,46,0,00,0,04
29278,-0,20,0,29,-10,19,0,00,-0,10,7,00,0,00,0,00,3,99,0,00,0,04
29295,-0,20,0,29,-10,00,0,00,-0,10,7,00,0,00,0,00,4,44,0,00,0,04
29312,-0,20,0,29,-10,09,0,00,-0,10,7,00,0,00,0,00,4,82,0,00,0,04
29329,-0,20,0,39,-10,09,0,00,0,00,-0,00,0,00,0,00,4,10,0,00,0,04
29345,-0,20,0,39,-10,19,0,00,0,00,-0,00,0,00,0,00,3,49,0,00,0,04
29362,0,00,0,49,-10,19,0,20,0,10,-7,00,0,00,14,00,1,91,0,00,2,14
29379,0,00,0,49,-10,19,0,20,0,10,-7,00,0,00,14,00,0,58,0,00,3,92
29395,0,00,0,49,-10,19,0,20,0,10,-7,00,0,00,14,00,-0,56,0,00,5,43
29412,-0,20,0,29,-10,19,0,00,-0,10,7,00,0,00,0,00,0,57,0,00,4,61
29428,-0,20,0,29,-10,19,0,00,-0,10,7,00,0,00,0,00,1,54,0,00,3,92
29444,0,00,0,39,-10,09,0,20,0,00,-0,00,0,00,14,00,1,31,0,00,5,43
29460,0,00,0,39,-10,09,0,20,0,00,-0,00,0,00,14,00,1,11,0,00,6,72
29476,-0,20,0,39,-10,09,0,00,0,00,-0,00,0,00,0,00,0,94,0,00,5,71
29492,-0,20,0,39,-10,19,0,00,0,00,-0,00,0,00,0,00,0,80,0,00,4,85
29508,-0,20,0,29,-10,19,0,00,-0,10,7,00,0,00,0,00,1,73,0,00,4,13
29524,-0,20,0,29,-10,19,0,00,-0,10,7,00,0,00,0,00,2,52,0,00,3,51
29540,-0,20,0,29,-10,19,0,00,-0,10,7,00,0,00,0,00,3,19,0,00,2,98
29558,-0,20,0,39,-10,09,0,00,0,00,-0,00,0,00,0,00,2,71,0,00,2,53
29578,-0,20,0,39,-10,09,0,00,0,00,-0,00,0,00,0,00,2,31,0,00,2,15
29596,-0,20,0,39,-10,09,0,00,0,00,-0,00,0,00,0,00,1,96,0,00,1,83
29612,-0,20,0,39,-10,19,0,00,0,00,-0,00,0,00,0,00,1,67,0,00,1,56
29629,-0,20,0,49,-10,19,0,00,0,10,-7,00,0,00,0,00,0,37,0,00,1,32
29645,-0,20,0,29,-10,19,0,00,-0,10,7,00,0,00,0,00,1,36,0,00,1,12
29663,-0,20,0,29,-10,19,0,00,-0,10,7,00,0,00,0,00,2,21,0,00,0,96
29681,-0,29,0,39,-10,29,-0,09,0,00,-0,00,0,00,-6,30,1,88,0,00,-0,13
29697,-0,29,0,39,-10,29,-0,09,0,00,-0,00,0,00,-6,30,1,60,0,00,-1,06
29713,-0,29,0,39,-10,29,-0,09,0,00,-0,00,0,00,-6,30,1,36,0,00,-1,84
29729,-0,29,0,39,-10,29,-0,09,0,00,-0,00,0,00,-6,30,1,15,0,00,-2,51
29745,-0,20,0,39,-10,09,0,00,0,00,-0,00,0,00,0,00,0,98,0,00,-2,14
29764,-0,20,0,29,-10,19,0,00,-0,10,7,00,0,00,0,00,1,88,0,00,-1,82
29780,0,00,0,29,-10,19,0,20,-0,10,7,00,0,00,14,00,2,65,0,00,0,56
29795,0,00,0,29,-10,09,0,20,-0,10,7,00,0,00,14,00,3,30,0,00,2,57
29812,-0,20,0,39,-10,09,0,00,0,00,-0,00,0,00,0,00,2,81,0,00,2,19
29828,-0,20,0,29,-10,19,0,00,-0,10,7,00,0,00,0,00,3,44,0,00,1,86
29844,-0,20,0,29,-10,19,0,00,-0,10,7,00,0,00,0,00,3,97,0,00,1,58
29860,0,00,0,39,-10,09,0,20,0,00,-0,00,0,00,14,00,3,38,0,00,3,44
29876,0,00,0,39,-10,09,0,20,0,00,-0,00,0,00,14,00,2,87,0,00,5,03
29892,-0,20,0,39,-10,09,0,00,0,00,-0,00,0,00,0,00,2,44,0,00,4,27
29908,-0,20,0,39,-10,09,0,00,0,00,-0,00,0,00,0,00,2,07,0,00,3,63
29924,-0,20,0,39,-10,09,0,00,0,00,-0,00,0,00,0,00,1,76,0,00,3,09
29940,-0,20,0,39,-10,19,0,00,0,00,-0,00,0,00,0,00,1,50,0,00,2,62
29956,-0,20,0,29,-10,19,0,00,-0,10,7,00,0,00,0,00,2,32,0,00,2,23
29972,-0,20,0,29,-10,19,0,00,-0,10,7,00,0,00,0,00,3,02,0,00,1,90
29988,-0,20,0,29,-10,19,0,00,-0,10,7,00,0,00,0,00,3,62,0,00,1,61
30004,-0,20,0,29,-10,09,0,00,-0,10,7,00,0,00,0,00,4,13,0,00,1,37
30020,0,00,0,39,-10,09,0,20,0,00,-0,00,0,00,14,00,3,51,0,00,3,26
30036,0,00,0,29,-10,19,0,20,-0,10,7,00,0,00,14,00,4,03,0,00,4,87
30052,-0,20,0,29,-10,19,0,00,-0,10,7,00,0,00,0,00,4,48,0,00,4,14
30068,-0,20,0,39,-10,09,0,00,0,00,-0,00,0,00,0,00,3,81,0,00,3,52
30084,-0,20,0,39,-10,09,0,00,0,00,-0,00,0,00,0,00,3,23,0,00,2,99
30100,-0,20,0,39,-10,09,0,00,0,00,-0,00,0,00,0,00,2,75,0,00,2,54
30116,-0,20,0,39,-10,09,0,00,0,00,-0,00,0,00,0,00,2,34,0,00,2,16
30132,0,00,0,39,-10,09,0,20,0,00,-0,00,0,00,14,00,1,99,0,00,3,94
30148,0,00,0,39,-10,09,0,20,0,00,-0,00,0,00,14,00,1,69,0,00,5,45
30164,0,20,0,29,-10,19,0,40,-0,10,7,00,0,00,28,00,2,49,0,00,8,83
30180,0,20,0,29,-10,29,0,40,-0,10,7,00,0,00,28,00,3,16,0,00,11,71
30196,-0,20,0,20,-10,29,0,00,-0,19,13,30,0,00,0,00,4,68,0,00,9,95
30228,-0,20,0,29,-10,00,0,00,-0,10,7,00,0,00,0,00,5,03,0,00,8,46
30244,-0,20,0,29,-10,00,0,00,-0,10,7,00,0,00,0,00,5,33,0,00,7,19
30260,-0,20,0,29,-10,00,0,00,-0,10,7,00,0,00,0,00,5,58,0,00,6,11
30276,-0,20,0,39,-10,09,0,00,0,00,-0,00,0,00,0,00,4,74,0,00,5,19
30295,0,00,0,39,-10,09,0,20,0,00,-0,00,0,00,14,00,4,03,0,00,6,51
30316,0,49,0,49,-9,90,0,69,0,10,-7,00,0,00,48,30,2,38,0,00,12,78
30333,0,49,0,49,-10,19,0,69,0,10,-7,00,0,00,48,30,0,97,0,00,18,11
30353,-0,78,0,29,-10,19,-0,58,-0,10,7,00,0,00,-40,60,1,87,0,00,9,30
30379,-0,78,0,20,-10,29,-0,58,-0,19,13,30,0,00,-40,60,3,59,0,00,1,82
30402,-0,49,1,67,-10,09,-0,29,1,28,-89,60,0,00,-20,30,-10,39,0,00,-1,50
30422,1,08,1,67,-10,09,1,28,1,28,-89,60,0,00,89,60,-22,27,0,00,12,17
30442,0,49,0,00,-10,09,0,69,-0,39,27,30,0,00,48,30,-14,84,0,00,17,59
30458,0,49,0,29,-10,00,0,69,-0,10,7,00,0,00,48,30,-11,56,0,00,22,19
30478,0,20,0,29,-10,00,0,40,-0,10,7,00,0,00,28,00,-8,78,0,00,23,06
30495,0,00,0,20,-10,29,0,20,-0,19,13,30,0,00,14,00,-5,47,0,00,21,70
30512,0,00,0,20,-10,09,0,20,-0,19,13,30,0,00,14,00,-2,65,0,00,20,55
30528,-0,20,0,39,-10,09,0,00,0,00,-0,00,0,00,0,00,-2,25,0,00,17,47
30545,-0,20,0,39,-10,09,0,00,0,00,-0,00,0,00,0,00,-1,91,0,00,14,85
30562,-0,20,0,39,-10,09,0,00,0,00,-0,00,0,00,0,00,-1,63,0,00,12,62
30578,-0,20,0,29,-10,19,0,00,-0,10,7,00,0,00,0,00,-0,33,0,00,10,73
30595,-0,20,0,29,-10,19,0,00,-0,10,7,00,0,00,0,00,0,77,0,00,9,12
30612,-0,20,0,39,-10,09,0,00,0,00,-0,00,0,00,0,00,0,65,0,00,7,75
30628,-0,20,0,39,-10,09,0,00,0,00,-0,00,0,00,0,00,0,55,0,00,6,59
