Time,AccelX,AccelY,AccelZ,TargetAngleX,TargetAngleY,TargetAngleZ,CurrentAngleX,CurrentAngleY,CurrentAngleZ
443,0,29,0,78,-10,09,11,70,-151,35,-2,90,1,76,-22,70,-0,44
472,0,29,0,69,-10,09,10,35,-151,35,-2,90,3,04,-42,00,-0,80
567,0,20,0,49,-9,90,7,35,-148,50,-2,00,3,69,-57,97,-0,98
598,0,20,0,49,-10,00,7,35,-150,00,-2,00,4,24,-71,78,-1,14
621,0,20,0,59,-10,00,8,85,-150,00,-2,00,4,93,-83,51,-1,27
644,0,29,0,69,-10,09,10,35,-151,35,-2,90,5,74,-93,69,-1,51
667,0,29,0,69,-10,09,10,35,-151,35,-2,90,6,43,-102,34,-1,72
689,0,29,0,69,-10,09,10,35,-151,35,-2,90,7,02,-109,69,-1,90
711,0,29,0,69,-10,09,10,35,-151,35,-2,90,7,52,-115,94,-2,05
733,0,29,0,59,-10,00,8,85,-150,00,-2,90,7,72,-121,05,-2,17
761,0,29,0,69,-10,09,10,35,-151,35,-2,90,8,11,-125,59,-2,28
785,0,29,0,69,-10,09,10,35,-151,35,-2,90,8,45,-129,46,-2,38
807,0,29,0,69,-10,00,10,35,-150,00,-2,90,8,74,-132,54,-2,45
827,0,29,0,78,-10,00,11,70,-150,00,-2,90,9,18,-135,16,-2,52
848,0,29,0,69,-10,09,10,35,-151,35,-2,90,9,36,-137,59,-2,58
872,0,29,0,69,-10,09,10,35,-151,35,-2,90,9,50,-139,65,-2,63
891,0,29,0,69,-10,09,10,35,-151,35,-2,90,9,63,-141,41,-2,67
910,0,29,0,69,-10,09,10,35,-151,35,-2,90,9,74,-142,90,-2,70
931,0,29,0,69,-10,09,10,35,-151,35,-2,90,9,83,-144,17,-2,70
949,0,29,0,69,-10,09,10,35,-151,35,-2,90,9,91,-145,24,-2,70
970,0,29,0,69,-10,09,10,35,-151,35,-2,90,9,97,-146,16,-2,70
989,0,29,0,69,-10,09,10,35,-151,35,-2,90,10,03,-146,94,-2,70
1007,0,20,0,69,-10,09,10,35,-151,35,-2,00,10,08,-147,60,-2,60
1025,0,29,0,69,-10,09,10,35,-151,35,-2,90,10,12,-148,16,-2,64
1043,0,29,0,69,-10,09,10,35,-151,35,-2,90,10,15,-148,64,-2,68
1061,0,29,0,59,-10,00,8,85,-150,00,-2,90,9,96,-148,84,-2,71
1081,0,29,0,59,-10,00,8,85,-150,00,-2,90,9,79,-149,02,-2,71
1100,0,29,0,59,-10,00,8,85,-150,00,-2,90,9,65,-149,16,-2,71
1119,0,29,0,69,-10,09,10,35,-151,35,-2,90,9,76,-149,49,-2,71
1137,0,29,0,69,-10,00,10,35,-150,00,-2,90,9,84,-149,57,-2,71
1155,0,29,0,59,-10,00,8,85,-150,00,-2,90,9,70,-149,63,-2,71
1172,0,29,0,59,-10,00,8,85,-150,00,-2,90,9,57,-149,69,-2,71
1189,0,29,0,59,-10,00,8,85,-150,00,-2,90,9,46,-149,74,-2,71
1207,0,29,0,59,-10,00,8,85,-150,00,-2,90,9,37,-149,77,-2,71
1225,0,29,0,59,-10,00,8,85,-150,00,-2,90,9,29,-149,81,-2,71
1243,0,29,0,59,-10,00,8,85,-150,00,-2,90,9,23,-149,81,-2,71
1265,0,29,0,59,-10,00,8,85,-150,00,-2,90,9,17,-149,81,-2,71
1283,0,29,0,59,-10,00,8,85,-150,00,-2,90,9,12,-149,81,-2,71
1300,0,29,0,59,-10,00,8,85,-150,00,-2,90,9,08,-149,81,-2,71
1317,0,29,0,59,-10,09,8,85,-151,35,-2,90,9,05,-150,04,-2,71
1333,0,29,0,69,-10,09,10,35,-151,35,-2,90,9,24,-150,24,-2,71
1349,0,29,0,69,-10,09,10,35,-151,35,-2,90,9,41,-150,40,-2,71
1365,0,29,0,69,-10,09,10,35,-151,35,-2,90,9,55,-150,55,-2,71
1381,0,29,0,69,-10,09,10,35,-151,35,-2,90,9,67,-150,67,-2,71
1397,0,29,0,69,-10,09,10,35,-151,35,-2,90,9,77,-150,77,-2,71
1413,0,29,0,69,-10,09,10,35,-151,35,-2,90,9,86,-150,86,-2,71
1429,0,29,0,69,-10,09,10,35,-151,35,-2,90,9,93,-150,93,-2,71
1445,0,29,0,69,-9,90,10,35,-148,50,-2,90,9,99,-150,57,-2,71
1461,0,29,0,69,-9,90,10,35,-148,50,-2,90,10,05,-150,26,-2,71
1482,0,29,0,69,-10,09,10,35,-151,35,-2,90,10,09,-150,42,-2,71
1503,0,29,0,69,-10,09,10,35,-151,35,-2,90,10,13,-150,56,-2,71
1521,0,29,0,69,-10,09,10,35,-151,35,-2,90,10,16,-150,68,-2,71
1539,0,29,0,69,-10,09,10,35,-151,35,-2,90,10,16,-150,78,-2,71
1557,0,29,0,69,-10,09,10,35,-151,35,-2,90,10,16,-150,86,-2,71
1573,0,29,0,69,-10,09,10,35,-151,35,-2,90,10,16,-150,94,-2,71
1591,0,29,0,69,-10,09,10,35,-151,35,-2,90,10,16,-151,00,-2,71
1609,0,29,0,69,-10,09,10,35,-151,35,-2,90,10,16,-151,05,-2,71
1631,0,29,0,59,-10,00,8,85,-150,00,-2,90,9,97,-150,89,-2,71
1649,0,29,0,59,-10,00,8,85,-150,00,-2,90,9,80,-150,76,-2,71
1667,0,29,0,59,-10,00,8,85,-150,00,-2,90,9,66,-150,65,-2,71
1684,0,29,0,59,-10,00,8,85,-150,00,-2,90,9,54,-150,55,-2,71
1707,0,29,0,59,-10,00,8,85,-150,00,-2,90,9,43,-150,47,-2,71
1726,0,29,0,59,-10,00,8,85,-150,00,-2,90,9,35,-150,40,-2,71
1748,0,29,0,59,-10,00,8,85,-150,00,-2,90,9,27,-150,34,-2,71
1765,0,29,0,59,-10,00,8,85,-150,00,-2,90,9,21,-150,29,-2,71
1781,0,20,0,59,-10,00,8,85,-150,00,-2,00,9,15,-150,24,-2,61
1799,0,20,0,59,-10,00,8,85,-150,00,-2,00,9,11,-150,21,-2,52
1818,0,20,0,59,-10,00,8,85,-150,00,-2,00,9,07,-150,18,-2,44
1836,0,20,0,69,-10,09,10,35,-151,35,-2,00,9,26,-150,35,-2,37
1854,0,20,0,69,-10,09,10,35,-151,35,-2,00,9,43,-150,50,-2,32
1872,0,29,0,69,-9,90,10,35,-148,50,-2,90,9,56,-150,20,-2,40
1893,0,29,0,69,-9,90,10,35,-148,50,-2,90,9,68,-149,95,-2,48
1909,0,29,0,69,-9,90,10,35,-148,50,-2,90,9,78,-149,73,-2,54
1925,0,29,0,69,-10,09,10,35,-151,35,-2,90,9,87,-149,97,-2,60
1943,0,29,0,69,-10,09,10,35,-151,35,-2,90,9,94,-150,18,-2,64
1964,0,20,0,59,-10,00,8,85,-150,00,-2,00,9,78,-150,18,-2,55
1983,0,20,0,59,-10,00,8,85,-150,00,-2,00,9,64,-150,18,-2,46
2001,0,29,0,59,-10,00,8,85,-150,00,-2,90,9,52,-150,18,-2,53
2018,0,29,0,59,-10,00,8,85,-150,00,-2,90,9,42,-150,18,-2,58
2038,0,29,0,59,-10,09,8,85,-151,35,-2,90,9,33,-150,35,-2,63
2056,0,29,0,69,-10,09,10,35,-151,35,-2,90,9,49,-150,50,-2,67
2076,-0,20,0,78,-10,00,11,70,-150,00,2,00,9,82,-150,43,-1,97
2097,-0,20,0,78,-10,00,11,70,-150,00,2,00,10,10,-150,36,-1,38
2116,-0,20,0,78,-10,00,11,70,-150,00,2,00,10,34,-150,31,-0,87
2133,-0,20,0,69,-9,90,10,35,-148,50,2,00,10,34,-150,04,-0,44
2149,0,29,0,69,-9,90,10,35,-148,50,-2,90,10,34,-149,81,-0,81
2165,0,20,0,69,-10,09,10,35,-151,35,-2,00,10,34,-150,04,-0,99
2181,0,20,0,69,-10,09,10,35,-151,35,-2,00,10,34,-150,24,-1,14
2199,0,29,0,59,-10,39,8,85,-155,85,-2,90,10,12,-151,08,-1,40
2217,0,29,0,59,-10,09,8,85,-151,35,-2,90,9,93,-151,12,-1,63
2235,0,29,0,69,-10,09,10,35,-151,35,-2,90,9,99,-151,15,-1,82
2253,0,29,1,27,-10,58,19,05,-158,70,-2,90,11,35,-152,29,-1,98
2270,-1,37,1,27,-10,58,19,05,-158,70,13,70,12,50,-153,25,0,37
2287,0,59,0,59,-10,00,8,85,-150,00,-5,90,11,96,-152,76,-0,57
2304,0,59,0,59,-10,00,8,85,-150,00,-5,90,11,49,-152,35,-1,37
2321,0,59,0,59,-10,00,8,85,-150,00,-5,90,11,09,-151,99,-2,05
2339,0,59,0,59,-10,19,8,85,-152,85,-5,90,10,76,-152,12,-2,63
2356,-0,29,0,88,-10,19,13,20,-152,85,2,90,11,12,-152,23,-1,80
2373,-0,29,0,78,-10,00,11,70,-150,00,2,90,11,21,-151,90,-1,09
2389,0,29,0,78,-10,00,11,70,-150,00,-2,90,11,28,-151,61,-1,36
2405,0,29,0,78,-10,00,11,70,-150,00,-2,90,11,35,-151,37,-1,59
2421,0,29,0,78,-10,00,11,70,-150,00,-2,90,11,40,-151,17,-1,79
2437,0,49,0,69,-10,09,10,35,-151,35,-4,90,11,24,-151,17,-2,26
2453,0,49,0,69,-10,09,10,35,-151,35,-4,90,11,11,-151,17,-2,65
2469,0,29,0,78,-10,29,11,70,-154,35,-2,90,11,20,-151,64,-2,69
2485,0,29,0,78,-10,00,11,70,-150,00,-2,90,11,27,-151,40,-2,72
2501,0,20,0,78,-10,00,11,70,-150,00,-2,00,11,34,-151,19,-2,61
2517,0,20,0,78,-10,00,11,70,-150,00,-2,00,11,39,-151,01,-2,52
2533,0,20,0,78,-10,00,11,70,-150,00,-2,00,11,44,-150,86,-2,44
2549,0,20,0,98,-9,80,14,70,-147,00,-2,00,11,93,-150,28,-2,38
2565,0,00,0,39,-9,80,5,85,-147,00,-0,00,11,02,-149,79,-2,02
2581,0,00,0,78,-10,00,11,70,-150,00,-0,00,11,12,-149,82,-1,72
2597,0,29,0,78,-10,00,11,70,-150,00,-2,90,11,21,-149,82,-1,89
2613,0,29,0,78,-10,00,11,70,-150,00,-2,90,11,28,-149,82,-2,05
2629,0,29,0,78,-10,00,11,70,-150,00,-2,90,11,34,-149,82,-2,17
2645,0,20,0,59,-10,00,8,85,-150,00,-2,00,10,97,-149,82,-2,17
2661,0,20,0,59,-10,00,8,85,-150,00,-2,00,10,65,-149,82,-2,17
2677,0,20,0,78,-10,00,11,70,-150,00,-2,00,10,81,-149,82,-2,17
2693,0,20,0,78,-10,00,11,70,-150,00,-2,00,10,94,-149,82,-2,17
2709,0,20,0,88,-9,90,13,20,-148,50,-2,00,11,28,-149,62,-2,17
2725,0,20,0,88,-9,90,13,20,-148,50,-2,00,11,57,-149,45,-2,17
2741,0,20,0,88,-9,90,13,20,-148,50,-2,00,11,81,-149,31,-2,17
2757,0,20,0,88,-10,00,13,20,-150,00,-2,00,12,02,-149,41,-2,17
2773,0,49,0,59,-10,00,8,85,-150,00,-4,90,11,55,-149,50,-2,58
2797,-0,20,0,69,-9,90,10,35,-148,50,2,00,11,37,-149,35,-1,90
2815,-0,20,0,69,-9,90,10,35,-148,50,2,00,11,21,-149,22,-1,31
2833,-0,20,0,69,-9,90,10,35,-148,50,2,00,11,08,-149,12,-0,81
2851,-0,20,0,39,-10,09,5,85,-151,35,2,00,10,30,-149,45,-0,39
2868,-0,29,0,39,-10,09,5,85,-151,35,2,90,9,63,-149,74,0,10
2884,-0,29,0,78,-10,29,11,70,-154,35,2,90,9,94,-150,43,0,52
2900,0,59,0,78,-10,29,11,70,-154,35,-5,90,10,21,-151,02,-0,44
2916,0,59,0,78,-10,29,11,70,-154,35,-5,90,10,43,-151,52,-1,26
2932,0,59,0,78,-10,29,11,70,-154,35,-5,90,10,62,-151,94,-1,96
2948,0,59,0,59,-10,58,8,85,-158,70,-5,90,10,35,-152,95,-2,55
2964,0,59,0,59,-10,58,8,85,-158,70,-5,90,10,13,-153,82,-3,05
2980,0,29,0,69,-11,07,10,35,-166,05,-2,90,10,16,-155,65,-3,05
2996,0,29,0,69,-10,68,10,35,-160,20,-2,90,10,16,-156,33,-3,05
3012,0,00,0,69,-10,68,10,35,-160,20,-0,00,10,16,-156,91,-2,59
3028,0,00,0,69,-10,68,10,35,-160,20,-0,00,10,16,-157,41,-2,20
3044,0,00,0,69,-10,68,10,35,-160,20,-0,00,10,16,-157,83,-1,87
3060,0,00,0,10,-9,80,1,50,-147,00,-0,00,8,86,-156,20,-1,59
3076,0,20,0,10,-9,80,1,50,-147,00,-2,00,7,76,-154,82,-1,65
3092,0,20,0,10,-10,39,1,50,-155,85,-2,00,6,82,-154,98,-1,71
3108,0,49,0,10,-10,39,1,50,-155,85,-4,90,6,02,-155,11,-2,18
3124,0,49,0,10,-10,39,1,50,-155,85,-4,90,5,34,-155,22,-2,59
3140,0,49,0,10,-10,39,1,50,-155,85,-4,90,4,77,-155,31,-2,94
3156,0,49,-0,10,-10,39,-1,50,-155,85,-4,90,3,83,-155,39,-3,23
3172,0,49,-0,10,-10,39,-1,50,-155,85,-4,90,3,03,-155,46,-3,48
3188,0,00,-0,20,-10,09,-3,00,-151,35,-0,00,2,12,-154,85,-2,96
3204,0,00,-0,20,-9,60,-3,00,-144,00,-0,00,1,36,-153,22,-2,52
3220,0,29,-0,39,-9,60,-5,85,-144,00,-2,90,0,27,-151,84,-2,57
3236,0,29,-0,39,-9,60,-5,85,-144,00,-2,90,-0,64,-150,66,-2,62
3252,0,29,-0,39,-9,60,-5,85,-144,00,-2,90,-1,43,-149,66,-2,66
3268,0,29,-0,39,-9,70,-5,85,-145,50,-2,90,-2,09,-149,04,-2,70
3284,0,00,-0,98,-9,70,-14,70,-145,50,-0,00,-3,98,-148,51,-2,29
3300,0,00,-0,98,-10,09,-14,70,-151,35,-0,00,-5,59,-148,93,-1,95
3316,-0,20,-0,98,-10,09,-14,70,-151,35,2,00,-6,96,-149,30,-1,36
3332,-0,20,-0,98,-10,09,-14,70,-151,35,2,00,-8,12,-149,60,-0,85
3364,0,29,-1,08,-10,00,-16,20,-150,00,-2,90,-9,33,-149,66,-1,16
3380,0,29,-1,08,-10,00,-16,20,-150,00,-2,90,-10,36,-149,71,-1,42
3396,-0,49,-1,08,-10,78,-16,20,-161,70,4,90,-11,24,-151,51,-0,47
3412,-0,49,-1,08,-10,78,-16,20,-161,70,4,90,-11,98,-153,04,0,33
3428,0,29,-1,57,-10,19,-23,55,-152,85,-2,90,-13,72,-153,04,-0,15
3444,0,29,-1,57,-10,19,-23,55,-152,85,-2,90,-15,19,-153,04,-0,56
3460,0,29,-1,37,-10,39,-20,55,-155,85,-2,90,-15,99,-153,46,-0,91
3476,0,29,-1,37,-9,90,-20,55,-148,50,-2,90,-16,68,-152,72,-1,21
3492,0,00,-1,96,-9,90,-29,40,-148,50,-0,00,-18,59,-152,08,-1,03
3508,0,00,-1,96,-9,80,-29,40,-147,00,-0,00,-20,21,-151,32,-0,88
3524,0,20,-2,25,-9,80,-33,75,-147,00,-2,00,-22,24,-150,67,-1,04
3540,0,20,-2,25,-9,80,-33,75,-147,00,-2,00,-23,97,-150,12,-1,19
3556,0,20,-2,25,-9,80,-33,75,-147,00,-2,00,-25,43,-149,65,-1,31
3572,0,20,-2,74,-10,00,-41,10,-150,00,-2,00,-27,78,-149,71,-1,41
3588,0,00,-2,74,-10,00,-41,10,-150,00,-0,00,-29,78,-149,75,-1,20
3604,0,00,-2,45,-10,09,-36,75,-151,35,-0,00,-30,83,-149,99,-1,02
3620,0,29,-2,45,-10,09,-36,75,-151,35,-2,90,-31,72,-150,19,-1,30
3636,0,29,-2,45,-10,09,-36,75,-151,35,-2,90,-32,47,-150,37,-1,54
3652,0,29,-2,45,-10,09,-36,75,-151,35,-2,90,-33,11,-150,51,-1,75
3668,-0,49,-3,14,-9,90,-47,10,-148,50,4,90,-35,21,-150,21,-0,75
3684,-0,49,-3,14,-9,90,-47,10,-148,50,4,90,-36,99,-149,96,0,10
3700,0,29,-3,14,-9,90,-47,10,-148,50,-2,90,-38,51,-149,74,-0,35
3716,0,29,-3,14,-9,60,-47,10,-144,00,-2,90,-39,80,-148,88,-0,73
3732,-0,29,-3,82,-9,60,-57,30,-144,00,2,90,-42,42,-148,15,-0,19
3748,-0,29,-3,82,-9,60,-57,30,-144,00,2,90,-44,66,-147,52,0,27
3780,-0,29,-3,82,-9,60,-57,30,-144,00,2,90,-46,55,-146,99,0,67
3796,-0,29,-3,82,-9,60,-57,30,-144,00,2,90,-48,16,-146,55,1,00
3812,-0,29,-3,53,-9,41,-52,95,-141,15,2,90,-48,88,-145,74,1,29
3828,-0,59,-3,53,-9,41,-52,95,-141,15,5,90,-49,49,-145,05,1,98
3844,-0,20,-4,02,-9,41,-60,30,-141,15,2,00,-51,11,-144,46,1,98
3860,-0,29,-4,02,-9,41,-60,30,-141,15,2,90,-52,49,-143,97,2,12
3876,-0,20,-4,80,-8,43,-72,00,-126,45,2,00,-55,42,-141,34,2,12
3892,-0,20,-4,80,-8,43,-72,00,-126,45,2,00,-57,90,-139,11,2,12
3908,-0,20,-4,80,-8,43,-72,00,-126,45,2,00,-60,02,-137,21,2,12
3924,-0,20,-4,80,-8,43,-72,00,-126,45,2,00,-61,82,-135,59,2,12
3940,-0,49,-5,49,-8,04,-82,35,-120,60,4,90,-64,90,-133,34,2,53
3956,-0,49,-5,49,-9,11,-82,35,-136,65,4,90,-67,51,-133,84,2,89
3972,-0,29,-5,59,-9,11,-83,85,-136,65,2,90,-69,96,-134,26,2,89
3988,-0,29,-5,59,-9,11,-83,85,-136,65,2,90,-72,05,-134,62,2,89
4004,-0,29,-5,59,-9,11,-83,85,-136,65,2,90,-73,82,-134,92,2,89
4020,-0,29,-5,59,-9,11,-83,85,-136,65,2,90,-75,32,-135,18,2,89
4036,-0,29,-5,59,-9,11,-83,85,-136,65,2,90,-76,60,-135,40,2,89
4052,-0,29,-5,59,-9,11,-83,85,-136,65,2,90,-77,69,-135,59,2,89
4068,-0,29,-5,59,-9,11,-83,85,-136,65,2,90,-78,61,-135,75,2,89
4084,0,20,-6,47,-7,64,-97,05,-114,60,-2,00,-81,38,-132,58,2,16
4100,-0,20,-6,47,-7,64,-97,05,-114,60,2,00,-83,73,-129,88,2,16
4116,0,00,-6,76,-7,74,-101,40,-116,10,-0,00,-86,38,-127,81,1,83
4132,0,00,-6,76,-7,74,-101,40,-116,10,-0,00,-88,63,-126,06,1,56
4148,0,00,-6,76,-7,74,-101,40,-116,10,-0,00,-90,55,-124,56,1,32
4180,0,00,-7,35,-6,57,-110,25,-98,55,-0,00,-93,50,-120,66,1,13
4196,0,00,-7,35,-6,57,-110,25,-98,55,-0,00,-96,02,-117,34,0,96
4212,0,00,-7,35,-6,57,-110,25,-98,55,-0,00,-98,15,-114,53,0,81
4228,0,00,-7,35,-7,15,-110,25,-107,25,-0,00,-99,97,-113,43,0,69
4244,-0,20,-7,35,-7,15,-110,25,-107,25,2,00,-101,51,-112,51,0,89
4260,-0,20,-7,35,-7,15,-110,25,-107,25,2,00,-102,82,-111,72,1,05
4276,-0,20,-7,35,-7,15,-110,25,-107,25,2,00,-103,93,-111,05,1,20
4292,-0,20,-7,64,-5,98,-114,60,-89,70,2,00,-105,53,-107,85,1,32
4308,-0,20,-7,64,-5,98,-114,60,-89,70,2,00,-106,89,-105,12,1,42
4324,-0,20,-7,84,-7,15,-117,60,-107,25,2,00,-108,50,-105,44,1,51
4340,0,00,-7,84,-7,15,-117,60,-107,25,-0,00,-109,86,-105,71,1,28
4356,0,00,-7,84,-7,15,-117,60,-107,25,-0,00,-111,03,-105,94,1,09
4372,0,00,-7,84,-7,15,-117,60,-107,25,-0,00,-112,01,-106,14,0,93
4388,0,00,-8,04,-5,98,-120,60,-89,70,-0,00,-113,30,-103,67,0,79
4404,0,00,-8,04,-5,98,-120,60,-89,70,-0,00,-114,39,-101,58,0,67
4420,0,00,-8,04,-5,98,-120,60,-89,70,-0,00,-115,33,-99,80,0,57
4448,0,00,-7,94,-6,08,-119,10,-91,20,-0,00,-115,89,-98,51,0,48
4475,-0,20,-8,43,-5,10,-126,45,-76,50,2,00,-117,48,-95,21,0,71
4497,-0,20,-8,43,-5,10,-126,45,-76,50,2,00,-118,82,-92,40,0,90
4514,-0,20,-8,43,-5,10,-126,45,-76,50,2,00,-119,97,-90,01,1,07
4531,-0,20,-8,82,-4,61,-132,30,-69,15,2,00,-121,82,-86,89,1,21
4548,-0,20,-8,82,-4,61,-132,30,-69,15,2,00,-123,39,-84,22,1,33
4566,-0,20,-9,11,-5,00,-136,65,-75,00,2,00,-125,38,-82,84,1,43
4584,-0,20,-9,11,-5,00,-136,65,-75,00,2,00,-127,07,-81,67,1,51
4601,0,29,-8,92,-4,70,-133,80,-70,50,-2,90,-128,08,-79,99,0,85
4619,0,29,-8,92,-4,70,-133,80,-70,50,-2,90,-128,94,-78,57,0,29
4636,-0,29,-9,21,-4,70,-138,15,-70,50,2,90,-130,32,-77,36,0,68
4653,-0,29,-9,21,-4,70,-138,15,-70,50,2,90,-131,49,-76,33,1,01
4670,-0,29,-9,21,-4,70,-138,15,-70,50,2,90,-132,49,-75,45,1,30
4687,-0,20,-9,02,-4,31,-135,30,-64,65,2,00,-132,91,-73,83,1,40
4705,-0,20,-9,02,-4,31,-135,30,-64,65,2,00,-133,27,-72,46,1,49
4722,-0,20,-9,02,-4,31,-135,30,-64,65,2,00,-133,58,-71,28,1,57
4739,-0,20,-9,41,-3,23,-141,15,-48,45,2,00,-134,71,-67,86,1,63
4756,-0,49,-9,60,-3,23,-144,00,-48,45,4,90,-136,10,-64,95,2,12
4773,-0,49,-9,60,-3,23,-144,00,-48,45,4,90,-137,29,-62,47,2,54
4790,-0,49,-9,60,-3,23,-144,00,-48,45,4,90,-138,30,-60,37,2,89
4807,-0,49,-9,21,-2,45,-138,15,-36,75,4,90,-138,30,-56,83,3,19
4824,-0,49,-9,21,-2,45,-138,15,-36,75,4,90,-138,30,-53,82,3,45
4841,0,20,-9,51,-2,35,-142,65,-35,25,-2,00,-138,95,-51,03,2,63
4858,0,20,-9,51,-2,35,-142,65,-35,25,-2,00,-139,50,-48,66,1,94
4875,0,20,-9,51,-2,35,-142,65,-35,25,-2,00,-139,98,-46,65,1,35
4897,-0,20,-9,90,-1,67,-148,50,-25,05,2,00,-141,25,-43,41,1,45
4914,-0,20,-9,90,-1,67,-148,50,-25,05,2,00,-142,34,-40,66,1,53
4931,-0,20,-9,90,-1,67,-148,50,-25,05,2,00,-143,27,-38,32,1,60
4948,-0,20,-9,90,-0,49,-148,50,-7,35,2,00,-144,05,-33,67,1,66
4965,-0,20,-9,70,-0,49,-145,50,-7,35,2,00,-144,27,-29,72,1,71
4983,-0,20,-9,70,-0,49,-145,50,-7,35,2,00,-144,45,-26,37,1,75
5000,-0,20,-9,70,-0,49,-145,50,-7,35,2,00,-144,61,-23,51,1,79
5017,-0,20,-9,70,-0,49,-145,50,-7,35,2,00,-144,74,-21,09,1,82
5035,-0,20,-9,70,0,00,-145,50,0,00,2,00,-144,86,-17,93,1,82
5052,-0,20,-10,00,0,10,-150,00,1,50,2,00,-145,63,-15,01,1,82
5069,-0,20,-10,00,0,10,-150,00,1,50,2,00,-146,28,-12,54,1,82
5086,-0,20,-10,00,0,10,-150,00,1,50,2,00,-146,84,-10,43,1,82
5103,-0,20,-9,80,0,69,-147,00,10,35,2,00,-146,84,-7,31,1,82
5120,0,00,-9,80,0,69,-147,00,10,35,-0,00,-146,84,-4,66,1,55
5137,0,00,-9,80,0,69,-147,00,10,35,-0,00,-146,84,-2,41,1,32
5154,0,00,-9,80,0,39,-147,00,5,85,-0,00,-146,84,-1,17,1,12
5171,-0,29,-9,80,0,39,-147,00,5,85,2,90,-146,84,-0,12,1,39
5188,-0,29,-9,80,0,78,-147,00,11,70,2,90,-146,84,1,65,1,61
5205,0,29,-9,70,0,78,-145,50,11,70,-2,90,-146,64,3,16,0,94
5222,0,29,-9,70,0,78,-145,50,11,70,-2,90,-146,47,4,44,0,36
5239,0,29,-9,70,0,78,-145,50,11,70,-2,90,-146,32,5,53,-0,13
5256,0,29,-9,51,1,27,-142,65,19,05,-2,90,-145,77,7,56,-0,54
5273,0,29,-9,51,1,27,-142,65,19,05,-2,90,-145,30,9,28,-0,90
5290,0,29,-9,51,1,27,-142,65,19,05,-2,90,-144,91,10,75,-1,20
5307,0,29,-9,51,2,06,-142,65,30,90,-2,90,-144,57,13,77,-1,45
5324,0,20,-9,02,2,06,-135,30,30,90,-2,00,-143,18,16,34,-1,54
5341,0,20,-9,31,2,65,-139,65,39,75,-2,00,-142,65,19,85,-1,60
5358,0,20,-9,31,2,65,-139,65,39,75,-2,00,-142,20,22,84,-1,66
5375,0,29,-9,21,2,55,-138,15,38,25,-2,90,-141,59,25,15,-1,85
5397,0,29,-9,21,3,23,-138,15,48,45,-2,90,-141,08,28,64,-2,01
5414,0,20,-9,60,3,23,-144,00,48,45,-2,00,-141,51,31,61,-2,01
5431,0,20,-9,60,3,23,-144,00,48,45,-2,00,-141,89,34,14,-2,01
5448,0,20,-9,60,3,23,-144,00,48,45,-2,00,-142,20,36,29,-2,01
5464,0,49,-8,92,3,63,-133,80,54,45,-4,90,-140,94,39,01,-2,44
5480,-0,20,-8,92,3,63,-133,80,54,45,2,00,-139,87,41,33,-1,77
5497,-0,20,-8,92,3,63,-133,80,54,45,2,00,-138,96,43,30,-1,21
5514,-0,20,-8,92,3,63,-133,80,54,45,2,00,-138,19,44,97,-0,73
5530,0,59,-8,43,4,61,-126,45,69,15,-5,90,-136,43,48,60,-1,50
5547,0,59,-8,43,4,02,-126,45,60,30,-5,90,-134,93,50,35,-2,16
5564,0,20,-8,62,4,02,-129,30,60,30,-2,00,-134,09,51,84,-2,16
5580,0,20,-8,62,4,02,-129,30,60,30,-2,00,-133,37,53,11,-2,16
5597,0,20,-8,62,4,02,-129,30,60,30,-2,00,-132,76,54,19,-2,16
5614,0,20,-8,33,4,70,-124,95,70,50,-2,00,-131,59,56,64,-2,16
5630,0,88,-8,33,4,70,-124,95,70,50,-8,80,-130,59,58,72,-3,16
5647,0,88,-8,33,4,70,-124,95,70,50,-8,80,-129,74,60,48,-4,00
5663,0,88,-8,33,4,70,-124,95,70,50,-8,80,-129,03,61,99,-4,72
5680,0,20,-7,94,4,02,-119,10,60,30,-2,00,-127,54,61,73,-4,32
5697,0,20,-7,94,4,02,-119,10,60,30,-2,00,-126,27,61,52,-3,97
5713,0,20,-7,94,4,02,-119,10,60,30,-2,00,-125,20,61,34,-3,67
5730,0,20,-7,94,4,02,-119,10,60,30,-2,00,-124,28,61,18,-3,42
5747,0,20,-7,94,4,02,-119,10,60,30,-2,00,-123,50,61,05,-3,21
5763,0,29,-7,84,5,68,-117,60,85,20,-2,90,-122,62,64,67,-3,16
5780,0,78,-7,84,5,68,-117,60,85,20,-7,80,-121,87,67,75,-3,86
5796,0,78,-7,84,5,68,-117,60,85,20,-7,80,-121,23,70,37,-4,45
5812,0,78,-7,84,5,68,-117,60,85,20,-7,80,-120,68,72,59,-4,95
5828,0,78,-7,84,5,68,-117,60,85,20,-7,80,-120,22,74,48,-5,38
5844,0,78,-7,84,5,68,-117,60,85,20,-7,80,-119,83,76,09,-5,74
5860,0,20,-7,35,6,08,-110,25,91,20,-2,00,-118,39,78,36,-5,18
5876,0,20,-7,35,6,08,-110,25,91,20,-2,00,-117,17,80,28,-4,70
5892,0,20,-7,35,6,08,-110,25,91,20,-2,00,-116,13,81,92,-4,30
5908,0,20,-7,35,6,17,-110,25,92,55,-2,00,-115,25,83,52,-3,95
5924,0,00,-7,55,6,17,-113,25,92,55,-0,00,-114,95,84,87,-3,36
5940,0,00,-7,55,6,17,-113,25,92,55,-0,00,-114,69,86,02,-2,86
5956,0,00,-7,55,6,17,-113,25,92,55,-0,00,-114,48,87,00,-2,43
5972,0,00,-7,25,5,78,-108,75,86,70,-0,00,-113,62,86,96,-2,06
5988,-0,49,-7,25,5,78,-108,75,86,70,4,90,-112,89,86,92,-1,02
6004,-0,49,-7,06,6,17,-105,90,92,55,4,90,-111,84,87,76,-0,13
6020,0,49,-7,06,6,17,-105,90,92,55,-4,90,-110,95,88,48,-0,85
6036,0,78,-7,06,6,76,-105,90,101,40,-7,80,-110,19,90,42,-1,89
6052,0,78,-7,06,6,76,-105,90,101,40,-7,80,-109,55,92,07,-2,78
6068,-0,20,-6,96,5,68,-104,40,85,20,2,00,-108,78,91,04,-2,06
6084,-0,20,-6,96,5,68,-104,40,85,20,2,00,-108,12,90,16,-1,45
6100,-0,20,-6,96,5,68,-104,40,85,20,2,00,-107,56,89,42,-0,93
6116,-0,20,-6,96,6,57,-104,40,98,55,2,00,-107,09,90,79,-0,49
6132,-0,20,-6,86,6,57,-102,90,98,55,2,00,-106,46,91,95,-0,12
6148,-0,20,-6,86,6,57,-102,90,98,55,2,00,-105,93,92,94,0,20
6164,-0,20,-6,86,6,57,-102,90,98,55,2,00,-105,47,93,78,0,47
6196,1,37,-6,57,6,57,-98,55,98,55,-13,70,-104,43,94,50,-1,66
6212,1,37,-6,57,6,57,-98,55,98,55,-13,70,-103,55,95,11,-3,46
6228,1,37,-6,57,6,57,-98,55,98,55,-13,70,-102,80,95,62,-5,00
6244,1,37,-6,57,6,57,-98,55,98,55,-13,70,-102,16,96,06,-6,30
6260,1,37,-6,57,6,57,-98,55,98,55,-13,70,-101,62,96,43,-7,41
6276,0,29,-6,66,6,76,-99,90,101,40,-2,90,-101,36,97,18,-6,74
6292,0,29,-6,66,6,76,-99,90,101,40,-2,90,-101,14,97,81,-6,16
6308,0,29,-6,66,6,76,-99,90,101,40,-2,90,-100,96,98,35,-5,67
6324,0,29,-6,66,6,76,-99,90,101,40,-2,90,-100,80,98,81,-5,26
6341,0,29,-6,37,7,15,-95,55,107,25,-2,90,-100,01,100,07,-4,90
6364,0,78,-6,37,8,13,-95,55,121,95,-7,80,-99,34,103,36,-5,34
6380,0,78,-6,37,8,13,-95,55,121,95,-7,80,-98,77,106,14,-5,71
6397,-0,49,-6,08,6,27,-91,20,94,05,4,90,-97,64,104,33,-4,12
6413,-0,49,-6,08,6,27,-91,20,94,05,4,90,-96,67,102,79,-2,76
6430,-0,49,-6,08,6,27,-91,20,94,05,4,90,-95,85,101,48,-1,61
6447,-0,49,-6,08,6,27,-91,20,94,05,4,90,-95,15,100,36,-0,64
6463,-0,49,-6,08,6,27,-91,20,94,05,4,90,-94,56,99,42,0,19
6480,-0,49,-5,68,7,55,-85,20,113,25,4,90,-93,16,101,49,0,90
6497,0,29,-5,68,7,55,-85,20,113,25,-2,90,-91,96,103,26,0,33
6513,0,29,-5,68,7,55,-85,20,113,25,-2,90,-90,95,104,75,-0,15
6530,0,29,-5,68,7,55,-85,20,113,25,-2,90,-90,09,106,03,-0,57
6547,0,29,-5,10,7,25,-76,50,108,75,-2,90,-88,05,106,44,-0,92
6563,0,29,-5,10,7,25,-76,50,108,75,-2,90,-86,32,106,78,-1,21
6580,0,49,-5,39,6,76,-80,85,101,40,-4,90,-85,50,105,98,-1,77
6596,0,49,-5,39,7,15,-80,85,107,25,-4,90,-84,80,106,17,-2,24
6612,1,08,-5,39,7,15,-80,85,107,25,-10,80,-84,21,106,33,-3,52
6628,1,08,-5,39,7,15,-80,85,107,25,-10,80,-83,70,106,47,-4,61
6644,1,08,-5,39,7,15,-80,85,107,25,-10,80,-83,28,106,59,-5,54
6660,1,08,-5,39,7,15,-80,85,107,25,-10,80,-82,91,106,68,-6,33
6676,1,08,-5,39,7,15,-80,85,107,25,-10,80,-82,60,106,77,-7,00
6692,1,08,-4,80,6,86,-72,00,102,90,-10,80,-81,01,106,19,-7,57
6708,0,20,-4,80,6,86,-72,00,102,90,-2,00,-79,66,105,70,-6,73
6724,0,20,-4,80,6,86,-72,00,102,90,-2,00,-78,51,105,28,-6,02
6740,0,20,-4,80,6,86,-72,00,102,90,-2,00,-77,53,104,92,-5,42
6756,1,37,-4,02,7,45,-60,30,111,75,-13,70,-74,95,105,94,-6,66
6772,1,37,-4,02,7,45,-60,30,111,75,-13,70,-72,75,106,82,-7,72
6788,1,37,-3,23,11,76,-48,45,176,40,-13,70,-69,11,117,25,-8,62
6804,1,37,-3,23,11,76,-48,45,176,40,-13,70,-66,01,126,13,-9,38
6820,1,37,-3,23,11,76,-48,45,176,40,-13,70,-63,37,133,67,-10,03
6836,1,37,-3,23,9,02,-48,45,135,30,-13,70,-61,14,133,91,-10,58
6852,1,27,-2,16,9,02,-32,40,135,30,-12,70,-56,83,134,12,-10,90
6868,1,27,-2,16,9,02,-32,40,135,30,-12,70,-53,16,134,30,-11,17
6884,1,27,-2,16,9,02,-32,40,135,30,-12,70,-50,05,134,45,-11,40
6900,1,27,-2,06,7,74,-30,90,116,10,-12,70,-47,18,131,70,-11,59
6916,0,59,-2,06,7,74,-30,90,116,10,-5,90,-44,73,129,36,-10,74
6932,0,59,-2,45,8,82,-36,75,132,30,-5,90,-43,54,129,80,-10,01
6948,2,16,-2,45,8,82,-36,75,132,30,-21,60,-42,52,130,17,-11,75
6980,1,57,-2,84,9,31,-42,60,139,65,-15,70,-42,52,131,59,-12,34
6996,1,37,-2,16,8,33,-32,40,124,95,-13,70,-41,00,130,60,-12,55
7012,1,37,-2,16,8,33,-32,40,124,95,-13,70,-39,71,129,75,-12,72
7028,1,37,-2,16,8,33,-32,40,124,95,-13,70,-38,61,129,03,-12,87
7044,1,37,-2,16,8,33,-32,40,124,95,-13,70,-37,68,128,42,-12,99
7060,1,37,-1,57,9,60,-23,55,144,00,-13,70,-35,56,130,76,-13,10
7076,1,37,-1,57,9,60,-23,55,144,00,-13,70,-33,76,132,74,-13,19
7092,1,37,-1,57,9,60,-23,55,144,00,-13,70,-32,23,134,43,-13,26
7108,1,37,-1,57,8,92,-23,55,133,80,-13,70,-30,93,134,34,-13,33
7124,1,67,-0,69,8,92,-10,35,133,80,-16,70,-27,84,134,26,-13,84
7141,1,67,-0,69,8,92,-10,35,133,80,-16,70,-25,22,134,19,-14,27
7163,1,67,-0,69,8,92,-10,35,133,80,-16,70,-22,99,134,13,-14,63
7181,1,67,-0,69,8,92,-10,35,133,80,-16,70,-21,09,134,08,-14,94
7197,1,67,-0,69,12,15,-10,35,182,25,-16,70,-19,48,141,31,-15,20
7213,1,37,-0,39,12,15,-5,85,182,25,-13,70,-17,44,147,45,-14,98
7230,1,37,-0,39,12,15,-5,85,182,25,-13,70,-15,70,152,67,-14,79
7247,1,37,-0,39,12,15,-5,85,182,25,-13,70,-14,22,157,10,-14,62
7263,1,37,0,39,9,21,5,85,138,15,-13,70,-11,21,154,26,-14,49
7280,1,08,0,39,9,21,5,85,138,15,-10,80,-8,65,151,84,-13,93
7297,0,88,0,49,8,53,7,35,127,95,-8,80,-6,25,148,26,-13,16
7313,0,88,0,49,8,53,7,35,127,95,-8,80,-4,21,145,21,-12,51
7330,0,88,0,49,8,53,7,35,127,95,-8,80,-2,48,142,62,-11,95
7347,0,88,0,49,8,04,7,35,120,60,-8,80,-1,00,139,32,-11,48
7363,1,37,1,86,8,04,27,90,120,60,-13,70,3,33,136,51,-11,81
7380,1,37,1,86,8,04,27,90,120,60,-13,70,7,02,134,13,-12,10
7396,1,37,1,86,8,04,27,90,120,60,-13,70,10,15,132,10,-12,34
7413,1,37,1,47,10,49,22,05,157,35,-13,70,11,94,135,88,-12,54
7430,0,59,1,47,10,49,22,05,157,35,-5,90,13,45,139,10,-11,54
7447,0,59,1,47,10,49,22,05,157,35,-5,90,14,74,141,84,-10,70
7463,0,59,1,47,10,49,22,05,157,35,-5,90,15,84,144,17,-9,98
7480,0,59,1,47,10,49,22,05,157,35,-5,90,16,77,146,15,-9,37
7496,0,59,1,47,8,04,22,05,120,60,-5,90,17,56,142,31,-8,85
7513,0,78,3,33,8,04,49,95,120,60,-7,80,22,42,139,06,-8,69
7530,0,78,3,33,8,04,49,95,120,60,-7,80,26,55,136,29,-8,56
7546,0,78,3,33,8,04,49,95,120,60,-7,80,30,06,133,93,-8,44
7563,0,20,3,53,10,19,52,95,152,85,-2,00,33,49,136,77,-7,48
7580,0,49,3,53,10,19,52,95,152,85,-4,90,36,41,139,18,-7,09
7597,0,29,3,72,9,51,55,80,142,65,-2,90,39,32,139,70,-6,46
7613,0,29,3,72,9,51,55,80,142,65,-2,90,41,79,140,15,-5,93
7630,0,29,3,72,9,51,55,80,142,65,-2,90,43,89,140,52,-5,47
7646,0,29,3,72,10,29,55,80,154,35,-2,90,45,68,142,60,-5,09
7663,0,29,3,43,10,29,51,45,154,35,-2,90,46,54,144,36,-4,76
7680,0,29,3,43,10,29,51,45,154,35,-2,90,47,28,145,86,-4,48
7697,0,29,3,43,10,29,51,45,154,35,-2,90,47,91,147,13,-4,24
7713,0,29,5,00,6,27,75,00,94,05,-2,90,51,97,139,17,-4,04
7730,-0,20,5,00,6,27,75,00,94,05,2,00,55,42,132,40,-3,14
7747,-0,29,5,78,6,86,86,70,102,90,2,90,60,12,127,98,-2,23
7763,-0,29,5,78,6,86,86,70,102,90,2,90,64,10,124,21,-1,46
7780,0,00,5,88,8,82,88,20,132,30,-0,00,67,72,125,43,-1,24
7796,0,00,5,88,11,27,88,20,169,05,-0,00,70,79,131,97,-1,06
7812,0,00,5,49,11,27,82,35,169,05,-0,00,72,52,137,53,-0,90
7828,0,00,5,49,11,27,82,35,169,05,-0,00,74,00,142,26,-0,76
7844,0,00,5,49,11,27,82,35,169,05,-0,00,75,25,146,28,-0,65
7860,0,00,7,15,5,19,107,25,77,85,-0,00,80,05,136,01,-0,55
7876,-0,88,7,15,5,19,107,25,77,85,8,80,84,13,127,29,0,85
7892,-0,88,7,35,4,90,110,25,73,50,8,80,88,05,119,22,2,04
7908,-0,88,7,35,4,90,110,25,73,50,8,80,91,38,112,36,3,06
7924,-1,57,7,15,8,04,107,25,120,60,15,70,93,76,113,60,4,95
7940,-1,57,7,15,8,04,107,25,120,60,15,70,95,78,114,65,6,57
7956,-1,37,7,06,8,92,105,90,133,80,13,70,97,30,117,52,7,64
7972,-1,37,7,06,8,92,105,90,133,80,13,70,98,59,119,96,8,55
7988,-1,27,7,55,6,37,113,25,95,55,12,70,100,79,116,30,9,17
8004,-1,27,7,55,6,37,113,25,95,55,12,70,102,66,113,19,9,70
8020,0,00,9,21,4,70,138,15,70,50,-0,00,107,98,106,79,8,24
8036,0,00,9,21,4,21,138,15,63,15,-0,00,112,51,100,24,7,01
8052,0,29,9,11,4,21,136,65,63,15,-2,90,116,13,94,68,5,52
8068,0,29,9,11,6,17,136,65,92,55,-2,90,119,21,94,36,4,26
8084,-1,57,8,53,6,17,127,95,92,55,15,70,120,52,94,09,5,97
8102,-1,57,8,62,7,25,129,30,108,75,15,70,121,84,96,29,7,43
8130,-0,88,8,62,7,25,129,30,108,75,8,80,122,96,98,16,7,64
8147,-0,88,8,62,7,25,129,30,108,75,8,80,123,91,99,74,7,81
8163,-0,88,9,41,4,12,141,15,61,80,8,80,126,49,94,05,7,96
8180,-1,27,9,41,4,12,141,15,61,80,12,70,128,69,89,22,8,67
8196,-0,59,9,41,4,41,141,15,66,15,5,90,130,56,85,76,8,26
8212,-0,59,9,41,4,41,141,15,66,15,5,90,132,15,82,81,7,90
8228,-0,20,9,11,4,02,136,65,60,30,2,00,132,82,79,44,7,02
8244,-0,20,9,11,4,02,136,65,60,30,2,00,133,40,76,57,6,26
8260,-1,08,10,19,2,55,152,85,38,25,10,80,136,32,70,82,6,94
8276,-1,08,10,19,3,53,152,85,52,95,10,80,138,80,68,14,7,52
8292,-0,59,9,51,3,53,142,65,52,95,5,90,139,37,65,86,7,28
8308,-0,59,9,51,2,25,142,65,33,75,5,90,139,87,61,04,7,07
8324,0,20,9,80,2,25,147,00,33,75,-2,00,140,94,56,95,5,71
8340,0,20,9,80,2,25,147,00,33,75,-2,00,141,85,53,47,4,56
8356,0,20,9,80,2,25,147,00,33,75,-2,00,142,62,50,51,3,57
8372,0,20,9,90,1,67,148,50,25,05,-2,00,143,50,46,69,2,74
8388,0,29,9,90,1,67,148,50,25,05,-2,90,144,25,43,45,1,89
8404,-0,29,10,29,0,98,154,35,14,70,2,90,145,77,39,13,2,04
8420,-0,29,10,29,0,98,154,35,14,70,2,90,147,05,35,47,2,17
8436,-0,29,10,29,0,98,154,35,14,70,2,90,148,15,32,35,2,28
8452,-0,29,10,29,0,98,154,35,14,70,2,90,149,08,29,71,2,37
8468,-0,20,9,90,0,88,148,50,13,20,2,00,148,99,27,23,2,32
8484,-0,20,9,90,0,88,148,50,13,20,2,00,148,92,25,13,2,27
8500,0,00,9,70,-0,10,145,50,-1,50,-0,00,148,41,21,13,1,93
8516,0,00,9,70,-0,59,145,50,-8,85,-0,00,147,97,16,63,1,64
8532,-0,29,10,09,-0,59,151,35,-8,85,2,90,148,48,12,81,1,83
8548,-0,29,10,09,-1,57,151,35,-23,55,2,90,148,91,7,36,1,99
8564,0,29,10,19,-1,57,152,85,-23,55,-2,90,149,50,2,72,1,26
8596,0,00,9,11,-0,98,136,65,-14,70,-0,00,147,57,0,11,1,07
8612,0,00,9,60,-2,06,144,00,-30,90,-0,00,147,04,-4,54,0,91
8628,-0,20,9,60,-2,06,144,00,-30,90,2,00,146,58,-8,50,1,07
8644,-0,20,9,60,-2,06,144,00,-30,90,2,00,146,19,-11,86,1,21
8660,-0,20,9,60,-2,06,144,00,-30,90,2,00,145,86,-14,71,1,33
8676,-0,20,9,90,-1,96,148,50,-29,40,2,00,146,26,-16,92,1,43
8692,-0,20,9,90,-1,96,148,50,-29,40,2,00,146,60,-18,79,1,52
8708,0,20,9,80,-2,06,147,00,-30,90,-2,00,146,66,-20,61,0,99
8724,0,20,9,80,-3,04,147,00,-45,60,-2,00,146,71,-24,35,0,54
8740,0,78,9,41,-3,04,141,15,-45,60,-7,80,145,87,-27,54,-0,71
8756,0,78,9,41,-2,74,141,15,-41,10,-7,80,145,17,-29,58,-1,77
8772,-0,29,9,70,-2,74,145,50,-41,10,2,90,145,22,-31,30,-1,07
8788,-0,29,9,70,-3,43,145,50,-51,45,2,90,145,26,-34,33,-0,48
8804,-0,29,9,60,-3,43,144,00,-51,45,2,90,145,07,-36,89,0,03
8820,-0,29,9,51,-3,72,142,65,-55,80,2,90,144,71,-39,73,0,46
8836,0,29,9,51,-3,72,142,65,-55,80,-2,90,144,40,-42,14,-0,04
8852,0,29,9,21,-3,72,138,15,-55,80,-2,90,143,46,-44,19,-0,47
8868,-0,20,9,21,-3,72,138,15,-55,80,2,00,142,66,-45,93,-0,10
8884,0,49,9,41,-4,41,141,15,-66,15,-4,90,142,44,-48,96,-0,82
8900,0,49,9,41,-4,41,141,15,-66,15,-4,90,142,24,-51,54,-1,43
8916,0,59,9,02,-5,00,135,30,-75,00,-5,90,141,20,-55,06,-2,10
8932,0,59,9,02,-5,00,135,30,-75,00,-5,90,140,32,-58,05,-2,67
8948,0,20,8,62,-4,21,129,30,-63,15,-2,00,138,66,-58,82,-2,57
8964,0,20,8,62,-4,21,129,30,-63,15,-2,00,137,26,-59,47,-2,49
8996,0,29,8,43,-5,98,126,45,-89,70,-2,90,135,64,-64,00,-2,55
9012,0,49,8,23,-5,98,123,45,-89,70,-4,90,133,81,-67,86,-2,90
9028,0,49,8,23,-5,29,123,45,-79,35,-4,90,132,26,-69,58,-3,20
9044,-0,20,7,84,-5,29,117,60,-79,35,2,00,130,06,-71,05,-2,42
9060,-0,20,7,84,-5,29,117,60,-79,35,2,00,128,19,-72,29,-1,76
9076,-0,20,7,84,-5,29,117,60,-79,35,2,00,126,60,-73,35,-1,19
9092,-0,20,7,35,-5,88,110,25,-88,20,2,00,124,15,-75,58,-0,71
9108,0,00,7,35,-5,88,110,25,-88,20,-0,00,122,06,-77,47,-0,61
9124,0,00,7,64,-6,47,114,60,-97,05,-0,00,120,94,-80,41,-0,52
9140,0,78,7,64,-6,47,114,60,-97,05,-7,80,119,99,-82,90,-1,61
9156,0,78,7,64,-6,47,114,60,-97,05,-7,80,119,18,-85,03,-2,54
9172,0,78,7,64,-6,47,114,60,-97,05,-7,80,118,50,-86,83,-3,33
9188,0,29,7,84,-7,15,117,60,-107,25,-2,90,118,36,-89,89,-3,26
9204,0,29,7,84,-7,15,117,60,-107,25,-2,90,118,25,-92,50,-3,21
9220,0,29,6,76,-6,17,101,40,-92,55,-2,90,115,72,-92,50,-3,16
9236,0,29,6,76,-7,64,101,40,-114,60,-2,90,113,57,-95,81,-3,12
9252,0,59,7,45,-7,64,111,75,-114,60,-5,90,113,30,-98,63,-3,54
9268,0,59,7,45,-7,64,111,75,-114,60,-5,90,113,07,-101,03,-3,89
9284,0,59,7,45,-7,64,111,75,-114,60,-5,90,112,87,-103,06,-4,19
9300,0,59,6,08,-6,96,91,20,-104,40,-5,90,109,62,-103,26,-4,45
9316,0,20,6,08,-6,96,91,20,-104,40,-2,00,106,86,-103,43,-4,08
9332,0,20,6,37,-8,13,95,55,-121,95,-2,00,105,16,-106,21,-3,77
9348,0,29,6,37,-8,13,95,55,-121,95,-2,90,103,72,-108,57,-3,64
9364,0,29,6,37,-7,35,95,55,-110,25,-2,90,102,49,-108,82,-3,53
9396,1,57,5,78,-6,66,86,70,-99,90,-15,70,100,12,-107,48,-5,35
9412,1,57,5,78,-6,66,86,70,-99,90,-15,70,98,11,-106,35,-6,91
9428,0,88,5,68,-6,76,85,20,-101,40,-8,80,96,17,-105,61,-7,19
9444,0,88,5,68,-6,76,85,20,-101,40,-8,80,94,53,-104,97,-7,43
9460,0,59,6,47,-8,23,97,05,-123,45,-5,90,94,91,-107,75,-7,20
9476,0,59,6,47,-8,23,97,05,-123,45,-5,90,95,23,-110,10,-7,01
9492,0,59,6,47,-8,23,97,05,-123,45,-5,90,95,50,-112,10,-6,84
9508,0,59,6,47,-8,04,97,05,-120,60,-5,90,95,73,-113,38,-6,70
9524,1,27,6,27,-8,04,94,05,-120,60,-12,70,95,48,-114,46,-7,60
9540,1,27,6,17,-7,55,92,55,-113,25,-12,70,95,04,-114,28,-8,36
9556,0,88,6,17,-7,55,92,55,-113,25,-8,80,94,67,-114,13,-8,43
9572,0,88,6,37,-8,33,95,55,-124,95,-8,80,94,80,-115,75,-8,49
9588,0,49,6,37,-8,33,95,55,-124,95,-4,90,94,91,-117,13,-7,95
9604,0,49,6,37,-8,53,95,55,-127,95,-4,90,95,01,-118,75,-7,49
9620,0,59,6,37,-8,53,95,55,-127,95,-5,90,95,09,-120,13,-7,25
9636,0,59,6,37,-8,53,95,55,-127,95,-5,90,95,16,-121,30,-7,05
9652,0,59,6,37,-8,53,95,55,-127,95,-5,90,95,22,-122,30,-6,88
9668,1,27,6,27,-8,43,94,05,-126,45,-12,70,95,04,-122,92,-7,75
9684,1,27,6,27,-8,43,94,05,-126,45,-12,70,94,89,-123,45,-8,49
9700,0,59,6,08,-7,74,91,20,-116,10,-5,90,94,34,-122,35,-8,10
9716,0,59,6,08,-8,72,91,20,-130,80,-5,90,93,87,-123,62,-7,77
9732,0,78,5,88,-8,72,88,20,-130,80,-7,80,93,02,-124,69,-7,77
9748,0,78,5,88,-8,04,88,20,-120,60,-7,80,92,30,-124,08,-7,77
9764,1,08,5,98,-8,04,89,70,-120,60,-10,80,91,91,-123,56,-8,23
9796,0,59,5,49,-7,74,82,35,-116,10,-5,90,90,47,-122,44,-7,88
9812,0,59,5,49,-8,23,82,35,-123,45,-5,90,89,25,-122,59,-7,58
9828,0,59,5,49,-8,23,82,35,-123,45,-5,90,88,22,-122,72,-7,33
9844,0,59,5,68,-8,53,85,20,-127,95,-5,90,87,77,-123,50,-7,11
9860,0,49,5,68,-8,53,85,20,-127,95,-4,90,87,38,-124,17,-6,78
9876,0,29,5,59,-8,33,83,85,-124,95,-2,90,86,85,-124,29,-6,20
9892,0,29,5,59,-8,33,83,85,-124,95,-2,90,86,40,-124,39,-5,71
9908,0,78,5,39,-7,55,80,85,-113,25,-7,80,85,57,-122,72,-6,02
9924,0,78,5,39,-7,55,80,85,-113,25,-7,80,84,86,-121,30,-6,29
9940,0,49,5,39,-8,62,80,85,-129,30,-4,90,84,26,-122,50,-6,08
9956,0,49,5,39,-8,04,80,85,-120,60,-4,90,83,75,-122,21,-5,90
9972,-0,20,5,10,-8,04,76,50,-120,60,2,00,82,66,-121,97,-4,72
9988,-0,20,5,10,-8,62,76,50,-129,30,2,00,81,74,-123,07,-3,71
10004,0,29,5,39,-8,62,80,85,-129,30,-2,90,81,60,-124,00,-3,59
10020,0,29,4,90,-7,74,73,50,-116,10,-2,90,80,39,-122,82,-3,48
10036,0,20,4,90,-7,74,73,50,-116,10,-2,00,79,35,-121,81,-3,26
10052,0,20,5,19,-8,13,77,85,-121,95,-2,00,79,13,-121,81,-3,07
10068,0,49,5,19,-8,13,77,85,-121,95,-4,90,78,94,-121,81,-3,35
10084,0,49,5,10,-9,02,76,50,-135,30,-4,90,78,57,-123,83,-3,58
10100,0,29,5,10,-9,02,76,50,-135,30,-2,90,78,26,-125,55,-3,48
10116,0,49,5,39,-7,84,80,85,-117,60,-4,90,78,65,-124,36,-3,69
10132,0,49,5,39,-7,84,80,85,-117,60,-4,90,78,98,-123,35,-3,87
10148,0,49,5,39,-7,84,80,85,-117,60,-4,90,79,26,-122,48,-4,03
10164,0,49,5,39,-7,84,80,85,-117,60,-4,90,79,50,-121,75,-4,16
10180,0,29,5,29,-8,72,79,35,-130,80,-2,90,79,50,-123,11,-3,97
10212,0,20,5,29,-8,04,79,35,-120,60,-2,00,79,50,-122,73,-3,67
10228,0,20,5,29,-8,04,79,35,-120,60,-2,00,79,50,-122,41,-3,42
10244,0,20,5,10,-8,04,76,50,-120,60,-2,00,79,05,-122,14,-3,21
10260,0,20,5,00,-7,84,75,00,-117,60,-2,00,78,44,-121,46,-3,03
10276,0,20,5,00,-7,84,75,00,-117,60,-2,00,77,93,-120,88,-2,87
10292,0,20,0,20,-1,47,3,00,-22,05,-2,00,66,69,-106,06,-2,74
10308,-1,37,0,20,-1,47,3,00,-22,05,13,70,57,13,-93,46,-0,28
10324,-1,37,5,19,-7,64,77,85,-114,60,13,70,60,24,-96,63,1,82
10340,0,20,5,19,-7,64,77,85,-114,60,-2,00,62,88,-99,32,1,25
10356,0,20,5,19,-7,64,77,85,-114,60,-2,00,65,13,-101,61,0,76
10372,0,20,5,19,-7,64,77,85,-114,60,-2,00,67,04,-103,56,0,35
10388,0,49,5,10,-9,21,76,50,-138,15,-4,90,68,46,-108,75,-0,44
10404,0,49,5,10,-9,21,76,50,-138,15,-4,90,69,66,-113,16,-1,11
10420,0,49,5,10,-9,21,76,50,-138,15,-4,90,70,69,-116,91,-1,68
10436,0,49,5,10,-9,21,76,50,-138,15,-4,90,71,56,-120,10,-2,16
10452,0,00,4,70,-9,21,70,50,-138,15,-0,00,71,40,-122,80,-1,84
10468,0,00,4,70,-9,90,70,50,-148,50,-0,00,71,27,-126,66,-1,56
10484,-0,20,4,70,-9,90,70,50,-148,50,2,00,71,15,-129,93,-1,03
10500,-0,20,4,12,-9,70,61,80,-145,50,2,00,69,75,-132,27,-0,57
10516,-0,20,4,12,-9,70,61,80,-145,50,2,00,68,56,-134,25,-0,19
10532,-0,20,3,72,-9,51,55,80,-142,65,2,00,66,64,-135,51,0,14
10548,0,00,3,72,-9,51,55,80,-142,65,-0,00,65,02,-136,58,0,14
10564,0,00,3,33,-9,90,49,95,-148,50,-0,00,62,76,-138,37,0,14
10580,-0,20,3,33,-9,90,49,95,-148,50,2,00,60,84,-139,89,0,42
10612,0,20,1,47,-8,43,22,05,-126,45,-2,00,55,02,-137,87,0,06
10628,0,20,0,49,-8,23,7,35,-123,45,-2,00,47,87,-135,71,-0,25
10644,0,20,0,49,-8,23,7,35,-123,45,-2,00,41,79,-133,87,-0,51
10660,0,20,0,49,-8,23,7,35,-123,45,-2,00,36,62,-132,31,-0,74
10676,0,20,0,49,-10,78,7,35,-161,70,-2,00,32,23,-136,72,-0,93
10692,-0,49,1,57,-10,78,23,55,-161,70,4,90,30,93,-140,46,-0,05
10708,-0,49,1,57,-10,19,23,55,-152,85,4,90,29,82,-142,32,0,69
10724,-0,49,1,27,-10,19,19,05,-152,85,4,90,28,21,-143,90,1,32
10740,-0,49,1,08,-10,00,16,20,-150,00,4,90,26,41,-144,82,1,86
10756,-0,20,1,08,-10,00,16,20,-150,00,2,00,24,88,-145,59,1,86
10772,-0,20,1,18,-10,29,17,70,-154,35,2,00,23,80,-146,91,1,86
10788,-0,29,1,18,-10,29,17,70,-154,35,2,90,22,88,-148,02,2,01
10804,-0,29,1,08,-10,19,16,20,-152,85,2,90,21,88,-148,75,2,15
10820,-0,20,1,08,-10,19,16,20,-152,85,2,00,21,03,-149,36,2,15
10836,-0,29,0,88,-10,19,13,20,-152,85,2,90,19,85,-149,89,2,26
10852,-0,29,0,88,-10,19,13,20,-152,85,2,90,18,86,-150,33,2,36
10868,0,49,0,78,-9,80,11,70,-147,00,-4,90,17,78,-149,83,1,27
10884,0,49,0,78,-9,80,11,70,-147,00,-4,90,16,87,-149,41,0,34
10900,0,20,0,69,-9,90,10,35,-148,50,-2,00,15,89,-149,27,-0,01
10916,0,20,0,69,-10,09,10,35,-151,35,-2,00,15,06,-149,58,-0,31
10932,0,49,0,98,-10,09,14,70,-151,35,-4,90,15,01,-149,85,-1,00
10948,0,49,0,98,-10,19,14,70,-152,85,-4,90,14,96,-150,30,-1,58
10964,-0,20,0,49,-10,19,7,35,-152,85,2,00,13,82,-150,68,-1,04
10996,0,88,0,78,-10,58,11,70,-158,70,-8,80,13,50,-151,88,-2,21
11012,0,88,0,39,-10,09,5,85,-151,35,-8,80,12,35,-151,80,-3,20
11028,0,49,0,39,-10,09,5,85,-151,35,-4,90,11,38,-151,74,-3,45
11044,0,49,0,59,-10,00,8,85,-150,00,-4,90,11,00,-151,48,-3,67
11060,0,29,0,59,-10,00,8,85,-150,00,-2,90,10,68,-151,25,-3,55
11076,0,29,0,39,-10,09,5,85,-151,35,-2,90,9,95,-151,25,-3,46
11092,0,29,0,39,-10,09,5,85,-151,35,-2,90,9,34,-151,25,-3,37
11108,0,88,0,59,-10,00,8,85,-150,00,-8,80,9,26,-151,07,-4,19
11124,0,88,0,59,-10,00,8,85,-150,00,-8,80,9,20,-150,91,-4,88
11140,0,88,0,59,-10,00,8,85,-150,00,-8,80,9,15,-150,77,-5,47
11156,0,88,0,59,-10,09,8,85,-151,35,-8,80,9,10,-150,86,-5,97
11172,0,49,1,37,-10,09,20,55,-151,35,-4,90,10,82,-150,93,-5,81
11188,0,49,1,37,-9,80,20,55,-147,00,-4,90,12,28,-150,34,-5,67
11204,0,49,0,78,-9,80,11,70,-147,00,-4,90,12,19,-149,84,-5,56
11220,0,49,0,59,-10,00,8,85,-150,00,-4,90,11,69,-149,84,-5,46
11236,0,29,0,59,-10,00,8,85,-150,00,-2,90,11,27,-149,84,-5,07
11252,0,29,0,69,-9,90,10,35,-148,50,-2,90,11,13,-149,64,-4,75
11268,0,20,0,69,-9,90,10,35,-148,50,-2,00,11,01,-149,47,-4,34
11284,0,29,0,59,-10,00,8,85,-150,00,-2,90,10,69,-149,55,-4,12
11300,0,29,0,59,-10,00,8,85,-150,00,-2,90,10,41,-149,62,-3,94
11316,0,29,0,69,-10,09,10,35,-151,35,-2,90,10,41,-149,88,-3,78
11332,0,29,0,69,-10,09,10,35,-151,35,-2,90,10,41,-150,10,-3,65
11348,0,29,0,69,-10,09,10,35,-151,35,-2,90,10,41,-150,28,-3,54
11364,0,29,0,69,-10,09,10,35,-151,35,-2,90,10,41,-150,44,-3,44
11380,0,29,0,78,-10,00,11,70,-150,00,-2,90,10,60,-150,38,-3,36
11412,0,29,0,69,-9,90,10,35,-148,50,-2,90,10,57,-150,10,-3,29
11428,0,29,0,69,-10,00,10,35,-150,00,-2,90,10,53,-150,10,-3,23
11444,0,29,0,59,-10,00,8,85,-150,00,-2,90,10,28,-150,10,-3,18
11460,0,29,0,78,-10,00,11,70,-150,00,-2,90,10,49,-150,10,-3,14
11476,0,29,0,78,-10,00,11,70,-150,00,-2,90,10,68,-150,10,-3,10
11492,0,29,0,59,-10,00,8,85,-150,00,-2,90,10,40,-150,10,-3,07
11508,0,20,0,59,-10,00,8,85,-150,00,-2,00,10,17,-150,10,-2,91
11524,0,20,0,59,-10,00,8,85,-150,00,-2,00,9,97,-150,10,-2,78
11540,0,29,0,59,-10,00,8,85,-150,00,-2,90,9,80,-150,10,-2,78
11556,0,20,0,59,-10,00,8,85,-150,00,-2,00,9,66,-150,10,-2,66
11572,0,20,0,59,-10,00,8,85,-150,00,-2,00,9,54,-150,10,-2,56
11588,0,29,0,78,-10,00,11,70,-150,00,-2,90,9,86,-150,10,-2,61
11604,0,29,0,78,-10,00,11,70,-150,00,-2,90,10,14,-150,10,-2,65
11620,0,20,0,69,-10,09,10,35,-151,35,-2,00,10,17,-150,28,-2,56
11636,0,20,0,69,-10,09,10,35,-151,35,-2,00,10,17,-150,44,-2,47
11652,0,20,0,69,-10,09,10,35,-151,35,-2,00,10,17,-150,58,-2,40
11668,0,20,0,69,-10,09,10,35,-151,35,-2,00,10,17,-150,70,-2,34
11684,0,29,0,69,-10,09,10,35,-151,35,-2,90,10,17,-150,79,-2,43
11700,0,29,0,59,-10,00,8,85,-150,00,-2,90,9,97,-150,67,-2,50
11716,0,20,0,59,-10,00,8,85,-150,00,-2,00,9,80,-150,57,-2,42
11732,0,20,0,69,-10,09,10,35,-151,35,-2,00,9,89,-150,69,-2,36
11748,0,29,0,69,-10,09,10,35,-151,35,-2,90,9,96,-150,79,-2,44
11764,0,29,0,59,-10,00,8,85,-150,00,-2,90,9,79,-150,67,-2,51
11780,0,29,0,59,-10,00,8,85,-150,00,-2,90,9,65,-150,57,-2,57
11812,0,29,0,69,-9,90,10,35,-148,50,-2,90,9,75,-150,26,-2,62
11828,0,20,0,59,-10,00,8,85,-150,00,-2,00,9,62,-150,22,-2,52
11844,0,20,0,59,-10,00,8,85,-150,00,-2,00,9,50,-150,19,-2,45
11860,0,29,0,69,-10,09,10,35,-151,35,-2,90,9,63,-150,36,-2,51
11876,0,29,0,69,-10,09,10,35,-151,35,-2,90,9,74,-150,51,-2,57
11892,0,29,0,69,-10,09,10,35,-151,35,-2,90,9,83,-150,64,-2,62
11908,0,29,0,69,-10,00,10,35,-150,00,-2,90,9,91,-150,54,-2,66
11924,0,20,0,59,-10,00,8,85,-150,00,-2,00,9,75,-150,46,-2,56
11940,0,20,0,78,-10,00,11,70,-150,00,-2,00,10,04,-150,39,-2,48
11956,0,20,0,78,-10,00,11,70,-150,00,-2,00,10,29,-150,33,-2,41
11972,0,20,0,69,-10,09,10,35,-151,35,-2,00,10,29,-150,48,-2,35
11988,0,20,0,69,-10,09,10,35,-151,35,-2,00,10,29,-150,61,-2,29
12004,0,20,0,49,-9,90,7,35,-148,50,-2,00,9,85,-150,30,-2,25
12020,0,29,0,49,-9,90,7,35,-148,50,-2,90,9,47,-150,03,-2,35
12036,0,29,0,69,-10,09,10,35,-151,35,-2,90,9,61,-150,23,-2,43
12052,0,29,0,69,-10,09,10,35,-151,35,-2,90,9,72,-150,39,-2,50
12068,0,20,0,59,-10,00,8,85,-150,00,-2,00,9,59,-150,34,-2,43
12084,0,20,0,59,-10,00,8,85,-150,00,-2,00,9,48,-150,29,-2,36
12100,0,20,0,59,-10,00,8,85,-150,00,-2,00,9,38,-150,24,-2,31
12116,0,20,0,59,-10,09,8,85,-151,35,-2,00,9,30,-150,41,-2,26
12132,0,20,0,69,-10,09,10,35,-151,35,-2,00,9,46,-150,55,-2,22
12148,0,20,0,69,-10,09,10,35,-151,35,-2,00,9,59,-150,67,-2,19
12164,0,20,0,69,-10,09,10,35,-151,35,-2,00,9,71,-150,77,-2,19
12180,0,20,0,69,-9,90,10,35,-148,50,-2,00,9,80,-150,43,-2,19
12212,0,29,0,69,-9,90,10,35,-148,50,-2,90,9,89,-150,14,-2,30
12228,0,20,0,69,-9,90,10,35,-148,50,-2,00,9,96,-149,90,-2,25
12244,0,20,0,59,-10,00,8,85,-150,00,-2,00,9,79,-149,90,-2,21
12260,0,20,0,59,-10,00,8,85,-150,00,-2,00,9,65,-149,90,-2,18
12276,0,20,0,59,-10,00,8,85,-150,00,-2,00,9,53,-149,90,-2,18
12292,0,20,0,59,-10,00,8,85,-150,00,-2,00,9,43,-149,90,-2,18
12308,0,20,0,69,-10,09,10,35,-151,35,-2,00,9,57,-150,11,-2,18
12324,0,20,0,69,-10,09,10,35,-151,35,-2,00,9,68,-150,30,-2,18
12340,0,29,0,69,-10,09,10,35,-151,35,-2,90,9,78,-150,46,-2,29
12356,0,29,0,69,-10,00,10,35,-150,00,-2,90,9,87,-150,39,-2,38
12373,0,20,0,78,-10,00,11,70,-150,00,-2,00,10,14,-150,33,-2,32
12396,0,29,0,59,-10,00,8,85,-150,00,-2,90,9,95,-150,28,-2,41
12413,0,29,0,59,-10,00,8,85,-150,00,-2,90,9,78,-150,24,-2,48
12429,0,29,0,59,-9,80,8,85,-147,00,-2,90,9,64,-149,75,-2,55
12448,0,29,0,59,-10,00,8,85,-150,00,-2,90,9,52,-149,79,-2,60
12464,0,29,0,78,-10,00,11,70,-150,00,-2,90,9,85,-149,82,-2,64
12481,0,29,0,88,-10,19,13,20,-152,85,-2,90,10,35,-150,28,-2,68
12505,0,20,0,88,-10,19,13,20,-152,85,-2,00,10,78,-150,66,-2,58
12534,0,20,0,88,-10,00,13,20,-150,00,-2,00,11,14,-150,56,-2,49
12550,0,29,0,69,-9,90,10,35,-148,50,-2,90,11,02,-150,25,-2,55
12566,0,29,0,69,-9,90,10,35,-148,50,-2,90,10,92,-149,99,-2,61
12581,0,29,0,69,-9,90,10,35,-148,50,-2,90,10,84,-149,77,-2,65
12597,0,29,0,69,-9,90,10,35,-148,50,-2,90,10,76,-149,58,-2,69
12613,0,20,0,69,-9,90,10,35,-148,50,-2,00,10,70,-149,42,-2,58
12630,0,20,0,69,-9,90,10,35,-148,50,-2,00,10,65,-149,28,-2,50
12646,0,20,0,69,-9,90,10,35,-148,50,-2,00,10,60,-149,16,-2,42
12663,0,20,0,69,-9,90,10,35,-148,50,-2,00,10,57,-149,06,-2,36
12679,0,29,0,69,-9,90,10,35,-148,50,-2,90,10,53,-148,98,-2,44
12696,0,29,0,59,-10,00,8,85,-150,00,-2,90,10,28,-149,13,-2,51
12713,0,29,0,59,-10,00,8,85,-150,00,-2,90,10,07,-149,26,-2,57
12730,0,20,0,78,-10,00,11,70,-150,00,-2,00,10,31,-149,37,-2,48
12746,0,20,0,78,-10,09,11,70,-151,35,-2,00,10,52,-149,67,-2,41
12763,0,20,0,69,-10,09,10,35,-151,35,-2,00,10,52,-149,92,-2,35
12780,0,20,0,69,-10,09,10,35,-151,35,-2,00,10,52,-150,14,-2,30
12796,0,29,0,69,-10,09,10,35,-151,35,-2,90,10,52,-150,32,-2,39
12813,0,29,0,78,-10,00,11,70,-150,00,-2,90,10,70,-150,27,-2,46
12830,0,20,0,78,-10,00,11,70,-150,00,-2,00,10,85,-150,23,-2,39
12847,0,29,0,69,-10,09,10,35,-151,35,-2,90,10,77,-150,40,-2,47
12863,0,29,0,69,-10,09,10,35,-151,35,-2,90,10,71,-150,54,-2,53
12883,0,29,0,69,-10,09,10,35,-151,35,-2,90,10,66,-150,66,-2,59
12899,0,29,0,69,-10,09,10,35,-151,35,-2,90,10,61,-150,77,-2,64
12914,0,20,0,69,-10,09,10,35,-151,35,-2,00,10,57,-150,85,-2,54
12930,0,20,0,69,-10,09,10,35,-151,35,-2,00,10,54,-150,93,-2,46
12950,0,20,0,69,-10,09,10,35,-151,35,-2,00,10,54,-150,99,-2,39
12968,0,20,0,59,-10,00,8,85,-150,00,-2,00,10,28,-150,84,-2,33
12984,0,20,0,59,-10,00,8,85,-150,00,-2,00,10,07,-150,72,-2,28
13007,0,29,0,78,-10,00,11,70,-150,00,-2,90,10,31,-150,61,-2,37
13023,0,29,0,69,-10,09,10,35,-151,35,-2,90,10,31,-150,72,-2,45
13040,0,29,0,69,-10,09,10,35,-151,35,-2,90,10,31,-150,81,-2,52
13061,0,29,0,69,-10,09,10,35,-151,35,-2,90,10,31,-150,89,-2,58
13079,0,29,0,69,-9,90,10,35,-148,50,-2,90,10,31,-150,54,-2,63
13102,0,20,0,69,-9,90,10,35,-148,50,-2,00,10,31,-150,23,-2,53
13118,0,20,0,69,-10,09,10,35,-151,35,-2,00,10,31,-150,40,-2,45
13134,0,20,0,69,-10,09,10,35,-151,35,-2,00,10,31,-150,54,-2,38
13155,0,20,0,69,-10,09,10,35,-151,35,-2,00,10,31,-150,66,-2,33
13178,0,20,0,59,-10,00,8,85,-150,00,-2,00,10,09,-150,56,-2,28
13198,0,20,0,59,-10,00,8,85,-150,00,-2,00,9,91,-150,48,-2,24
13213,0,29,0,59,-10,00,8,85,-150,00,-2,90,9,75,-150,41,-2,34
13230,0,29,0,69,-10,09,10,35,-151,35,-2,90,9,84,-150,55,-2,42
13314,0,20,0,69,-10,09,10,35,-151,35,-2,00,9,92,-150,67,-2,36
13349,0,29,0,69,-10,00,10,35,-150,00,-2,90,9,98,-150,57,-2,44
13390,0,20,0,69,-10,09,10,35,-151,35,-2,00,10,04,-150,69,-2,37
13489,0,29,0,69,-9,90,10,35,-148,50,-2,90,10,08,-150,36,-2,45
13566,0,29,0,59,-10,09,8,85,-151,35,-2,90,9,90,-150,51,-2,52
13592,0,20,0,69,-10,09,10,35,-151,35,-2,00,9,97,-150,63,-2,44
13608,0,29,0,69,-10,09,10,35,-151,35,-2,90,10,02,-150,74,-2,51
13630,0,29,0,59,-10,00,8,85,-150,00,-2,90,9,85,-150,63,-2,57
13646,0,29,0,59,-10,00,8,85,-150,00,-2,90,9,70,-150,54,-2,62
13663,0,29,0,59,-10,00,8,85,-150,00,-2,90,9,57,-150,45,-2,66
13679,0,29,0,69,-10,09,10,35,-151,35,-2,90,9,69,-150,59,-2,70
13696,0,29,0,69,-10,09,10,35,-151,35,-2,90,9,79,-150,70,-2,73
13713,0,29,0,69,-10,09,10,35,-151,35,-2,90,9,87,-150,80,-2,73
13730,0,29,0,69,-10,09,10,35,-151,35,-2,90,9,94,-150,88,-2,73
13746,0,20,0,59,-10,00,8,85,-150,00,-2,00,9,78,-150,75,-2,62
13763,0,20,0,59,-10,00,8,85,-150,00,-2,00,9,64,-150,64,-2,53
13779,0,20,0,69,-10,09,10,35,-151,35,-2,00,9,75,-150,74,-2,45
13796,0,20,0,69,-10,09,10,35,-151,35,-2,00,9,84,-150,84,-2,38
13812,0,29,0,69,-10,09,10,35,-151,35,-2,90,9,91,-150,91,-2,46
13828,0,29,0,69,-10,09,10,35,-151,35,-2,90,9,98,-150,98,-2,52
13844,0,29,0,69,-10,09,10,35,-151,35,-2,90,10,03,-151,03,-2,58
13860,0,29,0,69,-9,90,10,35,-148,50,-2,90,10,08,-150,65,-2,63
13876,0,29,0,69,-9,90,10,35,-148,50,-2,90,10,12,-150,33,-2,67
13893,0,29,0,69,-10,09,10,35,-151,35,-2,90,10,16,-150,48,-2,70
13913,0,29,0,69,-10,09,10,35,-151,35,-2,90,10,16,-150,61,-2,70
13930,0,20,0,59,-10,00,8,85,-150,00,-2,00,9,96,-150,52,-2,60
13946,0,20,0,59,-9,90,8,85,-148,50,-2,00,9,79,-150,22,-2,51
13967,0,20,0,69,-9,90,10,35,-148,50,-2,00,9,88,-149,96,-2,43
13985,0,29,0,59,-10,00,8,85,-150,00,-2,90,9,72,-149,96,-2,50
14001,0,29,0,59,-10,00,8,85,-150,00,-2,90,9,59,-149,96,-2,56
